responseTime,trial,targetWord,chosenWord,chosenCategory,chosenPosition,subjID,order,correct,german,aoa_german_comb,group,sex,age,age_group,source
5729,1,squirrel,squirrel,target,lower-left,11QViCtq,orderA,1,eichhörnchen,2.6,low,f,7.646817248459959,7,original CLT items
4189,2,cap,cap,target,upper-right,11QViCtq,orderA,1,mütze,1.95,low,f,7.646817248459959,7,original CLT items
3767,3,door,door,target,lower-left,11QViCtq,orderA,1,tür,3.12,low,f,7.646817248459959,7,original CLT items
3924,4,stairs,stairs,target,lower-right,11QViCtq,orderA,1,treppe,3.25,low,f,7.646817248459959,7,original CLT items
4496,5,desk,desk,target,lower-left,11QViCtq,orderA,1,schreibtisch,3.2,low,f,7.646817248459959,7,original CLT items
2922,6,strawberry,strawberry,target,upper-left,11QViCtq,orderA,1,erdbeere,3.47,low,f,7.646817248459959,7,original CLT items
2895,7,eye,eye,target,upper-left,11QViCtq,orderA,1,auge,2.69,low,f,7.646817248459959,7,original CLT items
3323,8,plane,plane,target,lower-left,11QViCtq,orderA,1,flugzeug,3.24,low,f,7.646817248459959,7,new items
2971,9,paintbrush,paintbrush,target,lower-left,11QViCtq,orderA,1,pinsel,3.43,low,f,7.646817248459959,7,original CLT items
2934,10,telephone,telephone,target,upper-right,11QViCtq,orderA,1,telefon,3.53,middle,f,7.646817248459959,7,original CLT items
2683,11,snake,snake,target,upper-left,11QViCtq,orderA,1,schlange,2,low,f,7.646817248459959,7,original CLT items
12552,12,carrot,carrot,target,lower-right,11QViCtq,orderA,1,möhre,3.36,low,f,7.646817248459959,7,original CLT items
2667,13,star,star,target,upper-left,11QViCtq,orderA,1,stern,3.29,low,f,7.646817248459959,7,original CLT items
2430,14,scissors,scissors,target,upper-right,11QViCtq,orderA,1,schere,3.38,low,f,7.646817248459959,7,original CLT items
7437,15,tiger,tiger,target,upper-right,11QViCtq,orderA,1,tiger,3.88,middle,f,7.646817248459959,7,original CLT items
3243,16,bone,bone,target,lower-right,11QViCtq,orderA,1,knochen,4.64,middle,f,7.646817248459959,7,original CLT items
2629,17,apple,apple,target,upper-left,11QViCtq,orderA,1,apfel,2.71,low,f,7.646817248459959,7,original CLT items
3009,18,fish,fish,target,lower-left,11QViCtq,orderA,1,fisch,2.76,low,f,7.646817248459959,7,original CLT items
2885,19,ant,ant,target,upper-right,11QViCtq,orderA,1,ameise,4.6,middle,f,7.646817248459959,7,original CLT items
2829,20,belt,belt,target,lower-right,11QViCtq,orderA,1,gürtel,4.11,middle,f,7.646817248459959,7,original CLT items
4336,21,fryingpan,fryingpan,target,upper-left,11QViCtq,orderA,1,pfanne,4.16,middle,f,7.646817248459959,7,new items
3839,22,zebra,zebra,target,upper-right,11QViCtq,orderA,1,zebra,3.65,middle,f,7.646817248459959,7,original CLT items
3680,23,needle,needle,target,upper-left,11QViCtq,orderA,1,nadel,4.22,middle,f,7.646817248459959,7,original CLT items
7646,24,bicycle,bicycle,target,upper-right,11QViCtq,orderA,1,fahrrad,3.8,middle,f,7.646817248459959,7,original CLT items
4821,25,ladder,ladder,target,upper-right,11QViCtq,orderA,1,leiter,4.47,middle,f,7.646817248459959,7,original CLT items
2775,26,battery,battery,target,lower-right,11QViCtq,orderA,1,batterie,5.94,middle,f,7.646817248459959,7,original CLT items
3384,27,elk,elk,target,upper-left,11QViCtq,orderA,1,elch,6.28,high,f,7.646817248459959,7,new items
6227,28,choir,choir,target,upper-right,11QViCtq,orderA,1,chor,7.19,high,f,7.646817248459959,7,new items
3026,29,kangaroo,kangaroo,target,lower-left,11QViCtq,orderA,1,känguru,5.89,middle,f,7.646817248459959,7,original CLT items
4204,30,ventilator,ventilator,target,upper-right,11QViCtq,orderA,1,ventilator,6.59,high,f,7.646817248459959,7,new items
2755,31,arugula,arugula,target,lower-right,11QViCtq,orderA,1,rucola,6.18,high,f,7.646817248459959,7,new items
3142,32,flag,flag,target,lower-right,11QViCtq,orderA,1,flagge,5.86,middle,f,7.646817248459959,7,original CLT items
2501,33,giraffe,giraffe,target,upper-left,11QViCtq,orderA,1,giraffe,3.79,middle,f,7.646817248459959,7,original CLT items
2901,34,palmtree,palmtree,target,lower-left,11QViCtq,orderA,1,palme,6.57,high,f,7.646817248459959,7,new items
2499,35,pineapple,pineapple,target,lower-right,11QViCtq,orderA,1,ananas,4.1,middle,f,7.646817248459959,7,original CLT items
3219,36,ocean,ocean,target,upper-left,11QViCtq,orderA,1,ozean,6.46,high,f,7.646817248459959,7,new items
4314,37,gazelle,gazelle,target,lower-right,11QViCtq,orderA,1,gazelle,6.31,high,f,7.646817248459959,7,new items
2672,38,ruler,ruler,target,lower-left,11QViCtq,orderA,1,lineal,4.9,middle,f,7.646817248459959,7,original CLT items
2401,39,badger,badger,target,lower-left,11QViCtq,orderA,1,dachs,6.17,high,f,7.646817248459959,7,new items
2877,40,chanterelle,chanterelle,target,upper-left,11QViCtq,orderA,1,pfifferling,7.13,high,f,7.646817248459959,7,new items
11354,41,ruin,ruin,target,lower-right,11QViCtq,orderA,1,ruine,6.21,high,f,7.646817248459959,7,new items
3353,42,labyrinth,labyrinth,target,lower-left,11QViCtq,orderA,1,labyrinth,6.63,high,f,7.646817248459959,7,new items
2877,43,mushroom,mushroom,target,lower-right,11QViCtq,orderA,1,pilz,3.67,middle,f,7.646817248459959,7,original CLT items
3944,44,orchid,orchid,target,lower-left,11QViCtq,orderA,1,orchidee,9.76,high,f,7.646817248459959,7,new items
3039,45,zucchini,zucchini,target,upper-right,11QViCtq,orderA,1,zucchini,5.95,middle,f,7.646817248459959,7,new items
3658,46,kayak,kayak,target,upper-left,11QViCtq,orderA,1,kajak,8.82,high,f,7.646817248459959,7,new items
5510,47,lobster,lobster,target,upper-right,11QViCtq,orderA,1,hummer,8,high,f,7.646817248459959,7,new items
4881,48,jaguar,jaguar,target,lower-right,11QViCtq,orderA,1,jaguar,7.64,high,f,7.646817248459959,7,new items
5610,49,carnation,carnation,target,upper-right,11QViCtq,orderA,1,nelke,7.82,high,f,7.646817248459959,7,new items
7481,50,satellite,meteorid,dist2,lower-right,11QViCtq,orderA,0,satellit,8.94,high,f,7.646817248459959,7,new items
19531,51,flounder,flounder,target,lower-right,11QViCtq,orderA,1,flunder,6.95,high,f,7.646817248459959,7,new items
9795,52,cello,cello,target,lower-left,11QViCtq,orderA,1,cello,8.67,high,f,7.646817248459959,7,new items
4552,1,door,door,target,lower-left,15X7mwV1,orderB,1,tür,3.12,low,f,5.683778234086242,5,original CLT items
4974,2,stairs,stairs,target,lower-right,15X7mwV1,orderB,1,treppe,3.25,low,f,5.683778234086242,5,original CLT items
4474,3,eye,eye,target,upper-left,15X7mwV1,orderB,1,auge,2.69,low,f,5.683778234086242,5,original CLT items
4308,4,desk,desk,target,lower-left,15X7mwV1,orderB,1,schreibtisch,3.2,low,f,5.683778234086242,5,original CLT items
3909,5,star,star,target,upper-left,15X7mwV1,orderB,1,stern,3.29,low,f,5.683778234086242,5,original CLT items
3285,6,squirrel,squirrel,target,lower-left,15X7mwV1,orderB,1,eichhörnchen,2.6,low,f,5.683778234086242,5,original CLT items
3775,7,cap,cap,target,upper-right,15X7mwV1,orderB,1,mütze,1.95,low,f,5.683778234086242,5,original CLT items
4650,8,telephone,telephone,target,upper-right,15X7mwV1,orderB,1,telefon,3.53,middle,f,5.683778234086242,5,original CLT items
6641,9,strawberry,strawberry,target,upper-left,15X7mwV1,orderB,1,erdbeere,3.47,low,f,5.683778234086242,5,original CLT items
3637,10,scissors,scissors,target,upper-right,15X7mwV1,orderB,1,schere,3.38,low,f,5.683778234086242,5,original CLT items
3512,11,bone,bone,target,lower-right,15X7mwV1,orderB,1,knochen,4.64,middle,f,5.683778234086242,5,original CLT items
2599,12,paintbrush,paintbrush,target,lower-left,15X7mwV1,orderB,1,pinsel,3.43,low,f,5.683778234086242,5,original CLT items
2586,13,fryingpan,fryingpan,target,upper-left,15X7mwV1,orderB,1,pfanne,4.16,middle,f,5.683778234086242,5,new items
3101,14,carrot,carrot,target,lower-right,15X7mwV1,orderB,1,möhre,3.36,low,f,5.683778234086242,5,original CLT items
3327,15,plane,plane,target,lower-left,15X7mwV1,orderB,1,flugzeug,3.24,low,f,5.683778234086242,5,new items
2886,16,tiger,tiger,target,upper-right,15X7mwV1,orderB,1,tiger,3.88,middle,f,5.683778234086242,5,original CLT items
2675,17,snake,snake,target,upper-left,15X7mwV1,orderB,1,schlange,2,low,f,5.683778234086242,5,original CLT items
4734,18,apple,apple,target,upper-left,15X7mwV1,orderB,1,apfel,2.71,low,f,5.683778234086242,5,original CLT items
7972,19,battery,battery,target,lower-right,15X7mwV1,orderB,1,batterie,5.94,middle,f,5.683778234086242,5,original CLT items
3443,20,flag,flag,target,lower-right,15X7mwV1,orderB,1,flagge,5.86,middle,f,5.683778234086242,5,original CLT items
8567,21,ladder,ladder,target,upper-right,15X7mwV1,orderB,1,leiter,4.47,middle,f,5.683778234086242,5,original CLT items
4928,22,fish,fish,target,lower-left,15X7mwV1,orderB,1,fisch,2.76,low,f,5.683778234086242,5,original CLT items
3544,23,giraffe,giraffe,target,upper-left,15X7mwV1,orderB,1,giraffe,3.79,middle,f,5.683778234086242,5,original CLT items
3546,24,ant,ant,target,upper-right,15X7mwV1,orderB,1,ameise,4.6,middle,f,5.683778234086242,5,original CLT items
3868,25,bicycle,bicycle,target,upper-right,15X7mwV1,orderB,1,fahrrad,3.8,middle,f,5.683778234086242,5,original CLT items
8960,26,ruin,ruin,target,lower-right,15X7mwV1,orderB,1,ruine,6.21,high,f,5.683778234086242,5,new items
16724,27,choir,choir,target,upper-right,15X7mwV1,orderB,1,chor,7.19,high,f,5.683778234086242,5,new items
7561,28,pineapple,pineapple,target,lower-right,15X7mwV1,orderB,1,ananas,4.1,middle,f,5.683778234086242,5,original CLT items
7418,29,zebra,zebra,target,upper-right,15X7mwV1,orderB,1,zebra,3.65,middle,f,5.683778234086242,5,original CLT items
2704,30,belt,belt,target,lower-right,15X7mwV1,orderB,1,gürtel,4.11,middle,f,5.683778234086242,5,original CLT items
2784,31,mushroom,mushroom,target,lower-right,15X7mwV1,orderB,1,pilz,3.67,middle,f,5.683778234086242,5,original CLT items
4340,32,elk,elk,target,upper-left,15X7mwV1,orderB,1,elch,6.28,high,f,5.683778234086242,5,new items
2876,33,needle,needle,target,upper-left,15X7mwV1,orderB,1,nadel,4.22,middle,f,5.683778234086242,5,original CLT items
4690,34,arugula,arugula,target,lower-right,15X7mwV1,orderB,1,rucola,6.18,high,f,5.683778234086242,5,new items
3179,35,palmtree,palmtree,target,lower-left,15X7mwV1,orderB,1,palme,6.57,high,f,5.683778234086242,5,new items
2908,36,kangaroo,kangaroo,target,lower-left,15X7mwV1,orderB,1,känguru,5.89,middle,f,5.683778234086242,5,original CLT items
7149,37,gazelle,gazelle,target,lower-right,15X7mwV1,orderB,1,gazelle,6.31,high,f,5.683778234086242,5,new items
4268,38,badger,badger,target,lower-left,15X7mwV1,orderB,1,dachs,6.17,high,f,5.683778234086242,5,new items
11354,39,chanterelle,chanterelle,target,upper-left,15X7mwV1,orderB,1,pfifferling,7.13,high,f,5.683778234086242,5,new items
9554,40,orchid,orchid,target,lower-left,15X7mwV1,orderB,1,orchidee,9.76,high,f,5.683778234086242,5,new items
4911,41,carnation,carnation,target,upper-right,15X7mwV1,orderB,1,nelke,7.82,high,f,5.683778234086242,5,new items
9896,42,ventilator,ventilator,target,upper-right,15X7mwV1,orderB,1,ventilator,6.59,high,f,5.683778234086242,5,new items
9502,43,labyrinth,labyrinth,target,lower-left,15X7mwV1,orderB,1,labyrinth,6.63,high,f,5.683778234086242,5,new items
7272,44,ocean,river,dist1,lower-left,15X7mwV1,orderB,0,ozean,6.46,high,f,5.683778234086242,5,new items
5250,45,lobster,lobster,target,upper-right,15X7mwV1,orderB,1,hummer,8,high,f,5.683778234086242,5,new items
7330,46,cello,harp,dist1,lower-right,15X7mwV1,orderB,0,cello,8.67,high,f,5.683778234086242,5,new items
33036,47,kayak,kayak,target,upper-left,15X7mwV1,orderB,1,kajak,8.82,high,f,5.683778234086242,5,new items
3901,48,ruler,ruler,target,lower-left,15X7mwV1,orderB,1,lineal,4.9,middle,f,5.683778234086242,5,original CLT items
4252,49,jaguar,panther,dist1,lower-left,15X7mwV1,orderB,0,jaguar,7.64,high,f,5.683778234086242,5,new items
6546,50,flounder,elderberry,dist2,upper-left,15X7mwV1,orderB,0,flunder,6.95,high,f,5.683778234086242,5,new items
3671,51,satellite,cell,dist3,lower-left,15X7mwV1,orderB,0,satellit,8.94,high,f,5.683778234086242,5,new items
8225,52,zucchini,zucchini,target,upper-right,15X7mwV1,orderB,1,zucchini,5.95,middle,f,5.683778234086242,5,new items
8431,1,squirrel,squirrel,target,lower-left,17ybrhrW,orderA,1,eichhörnchen,2.6,low,f,6.885694729637235,6,original CLT items
8165,2,cap,cap,target,upper-right,17ybrhrW,orderA,1,mütze,1.95,low,f,6.885694729637235,6,original CLT items
6459,3,door,door,target,lower-left,17ybrhrW,orderA,1,tür,3.12,low,f,6.885694729637235,6,original CLT items
5646,4,stairs,stairs,target,lower-right,17ybrhrW,orderA,1,treppe,3.25,low,f,6.885694729637235,6,original CLT items
9343,5,desk,desk,target,lower-left,17ybrhrW,orderA,1,schreibtisch,3.2,low,f,6.885694729637235,6,original CLT items
8342,6,strawberry,strawberry,target,upper-left,17ybrhrW,orderA,1,erdbeere,3.47,low,f,6.885694729637235,6,original CLT items
5528,7,eye,eye,target,upper-left,17ybrhrW,orderA,1,auge,2.69,low,f,6.885694729637235,6,original CLT items
4018,8,plane,plane,target,lower-left,17ybrhrW,orderA,1,flugzeug,3.24,low,f,6.885694729637235,6,new items
3775,9,paintbrush,paintbrush,target,lower-left,17ybrhrW,orderA,1,pinsel,3.43,low,f,6.885694729637235,6,original CLT items
5471,10,telephone,telephone,target,upper-right,17ybrhrW,orderA,1,telefon,3.53,middle,f,6.885694729637235,6,original CLT items
6958,11,snake,snake,target,upper-left,17ybrhrW,orderA,1,schlange,2,low,f,6.885694729637235,6,original CLT items
9335,12,carrot,carrot,target,lower-right,17ybrhrW,orderA,1,möhre,3.36,low,f,6.885694729637235,6,original CLT items
4386,13,star,star,target,upper-left,17ybrhrW,orderA,1,stern,3.29,low,f,6.885694729637235,6,original CLT items
4043,14,scissors,scissors,target,upper-right,17ybrhrW,orderA,1,schere,3.38,low,f,6.885694729637235,6,original CLT items
4388,15,tiger,tiger,target,upper-right,17ybrhrW,orderA,1,tiger,3.88,middle,f,6.885694729637235,6,original CLT items
3853,16,bone,bone,target,lower-right,17ybrhrW,orderA,1,knochen,4.64,middle,f,6.885694729637235,6,original CLT items
4516,17,apple,apple,target,upper-left,17ybrhrW,orderA,1,apfel,2.71,low,f,6.885694729637235,6,original CLT items
3545,18,fish,fish,target,lower-left,17ybrhrW,orderA,1,fisch,2.76,low,f,6.885694729637235,6,original CLT items
5857,19,ant,ant,target,upper-right,17ybrhrW,orderA,1,ameise,4.6,middle,f,6.885694729637235,6,original CLT items
3220,20,belt,belt,target,lower-right,17ybrhrW,orderA,1,gürtel,4.11,middle,f,6.885694729637235,6,original CLT items
8219,21,fryingpan,fryingpan,target,upper-left,17ybrhrW,orderA,1,pfanne,4.16,middle,f,6.885694729637235,6,new items
8104,22,zebra,zebra,target,upper-right,17ybrhrW,orderA,1,zebra,3.65,middle,f,6.885694729637235,6,original CLT items
6600,23,needle,needle,target,upper-left,17ybrhrW,orderA,1,nadel,4.22,middle,f,6.885694729637235,6,original CLT items
8716,24,bicycle,bicycle,target,upper-right,17ybrhrW,orderA,1,fahrrad,3.8,middle,f,6.885694729637235,6,original CLT items
6433,25,ladder,ladder,target,upper-right,17ybrhrW,orderA,1,leiter,4.47,middle,f,6.885694729637235,6,original CLT items
5963,26,battery,battery,target,lower-right,17ybrhrW,orderA,1,batterie,5.94,middle,f,6.885694729637235,6,original CLT items
8554,27,elk,elk,target,upper-left,17ybrhrW,orderA,1,elch,6.28,high,f,6.885694729637235,6,new items
19060,28,choir,choir,target,upper-right,17ybrhrW,orderA,1,chor,7.19,high,f,6.885694729637235,6,new items
3051,29,kangaroo,kangaroo,target,lower-left,17ybrhrW,orderA,1,känguru,5.89,middle,f,6.885694729637235,6,original CLT items
6892,30,ventilator,ventilator,target,upper-right,17ybrhrW,orderA,1,ventilator,6.59,high,f,6.885694729637235,6,new items
5046,31,arugula,arugula,target,lower-right,17ybrhrW,orderA,1,rucola,6.18,high,f,6.885694729637235,6,new items
4914,32,flag,flag,target,lower-right,17ybrhrW,orderA,1,flagge,5.86,middle,f,6.885694729637235,6,original CLT items
3382,33,giraffe,giraffe,target,upper-left,17ybrhrW,orderA,1,giraffe,3.79,middle,f,6.885694729637235,6,original CLT items
5877,34,palmtree,palmtree,target,lower-left,17ybrhrW,orderA,1,palme,6.57,high,f,6.885694729637235,6,new items
3079,35,pineapple,watermelon,dist1,lower-left,17ybrhrW,orderA,0,ananas,4.1,middle,f,6.885694729637235,6,original CLT items
46254,36,ocean,ocean,target,upper-left,17ybrhrW,orderA,1,ozean,6.46,high,f,6.885694729637235,6,new items
4559,37,gazelle,gazelle,target,lower-right,17ybrhrW,orderA,1,gazelle,6.31,high,f,6.885694729637235,6,new items
10289,38,ruler,ruler,target,lower-left,17ybrhrW,orderA,1,lineal,4.9,middle,f,6.885694729637235,6,original CLT items
3058,39,badger,badger,target,lower-left,17ybrhrW,orderA,1,dachs,6.17,high,f,6.885694729637235,6,new items
5518,40,chanterelle,chanterelle,target,upper-left,17ybrhrW,orderA,1,pfifferling,7.13,high,f,6.885694729637235,6,new items
4568,41,ruin,ruin,target,lower-right,17ybrhrW,orderA,1,ruine,6.21,high,f,6.885694729637235,6,new items
4879,42,labyrinth,labyrinth,target,lower-left,17ybrhrW,orderA,1,labyrinth,6.63,high,f,6.885694729637235,6,new items
3880,43,mushroom,mushroom,target,lower-right,17ybrhrW,orderA,1,pilz,3.67,middle,f,6.885694729637235,6,original CLT items
10559,44,orchid,orchid,target,lower-left,17ybrhrW,orderA,1,orchidee,9.76,high,f,6.885694729637235,6,new items
4526,45,zucchini,zucchini,target,upper-right,17ybrhrW,orderA,1,zucchini,5.95,middle,f,6.885694729637235,6,new items
9157,46,kayak,kayak,target,upper-left,17ybrhrW,orderA,1,kajak,8.82,high,f,6.885694729637235,6,new items
5525,47,lobster,lobster,target,upper-right,17ybrhrW,orderA,1,hummer,8,high,f,6.885694729637235,6,new items
35017,48,jaguar,jaguar,target,lower-right,17ybrhrW,orderA,1,jaguar,7.64,high,f,6.885694729637235,6,new items
16198,49,carnation,violets,dist1,lower-right,17ybrhrW,orderA,0,nelke,7.82,high,f,6.885694729637235,6,new items
11265,50,satellite,meteorid,dist2,lower-right,17ybrhrW,orderA,0,satellit,8.94,high,f,6.885694729637235,6,new items
5107,51,flounder,elderberry,dist2,upper-left,17ybrhrW,orderA,0,flunder,6.95,high,f,6.885694729637235,6,new items
25660,52,cello,cello,target,lower-left,17ybrhrW,orderA,1,cello,8.67,high,f,6.885694729637235,6,new items
6774,1,squirrel,squirrel,target,lower-left,18X9TEt7,orderA,1,eichhörnchen,2.6,low,m,5.834360027378508,5,original CLT items
4623,2,cap,cap,target,upper-right,18X9TEt7,orderA,1,mütze,1.95,low,m,5.834360027378508,5,original CLT items
3747,3,door,door,target,lower-left,18X9TEt7,orderA,1,tür,3.12,low,m,5.834360027378508,5,original CLT items
4177,4,stairs,stairs,target,lower-right,18X9TEt7,orderA,1,treppe,3.25,low,m,5.834360027378508,5,original CLT items
4762,5,desk,desk,target,lower-left,18X9TEt7,orderA,1,schreibtisch,3.2,low,m,5.834360027378508,5,original CLT items
3289,6,strawberry,strawberry,target,upper-left,18X9TEt7,orderA,1,erdbeere,3.47,low,m,5.834360027378508,5,original CLT items
2619,7,eye,eye,target,upper-left,18X9TEt7,orderA,1,auge,2.69,low,m,5.834360027378508,5,original CLT items
2836,8,plane,plane,target,lower-left,18X9TEt7,orderA,1,flugzeug,3.24,low,m,5.834360027378508,5,new items
2794,9,paintbrush,paintbrush,target,lower-left,18X9TEt7,orderA,1,pinsel,3.43,low,m,5.834360027378508,5,original CLT items
2585,10,telephone,telephone,target,upper-right,18X9TEt7,orderA,1,telefon,3.53,middle,m,5.834360027378508,5,original CLT items
2197,11,snake,snake,target,upper-left,18X9TEt7,orderA,1,schlange,2,low,m,5.834360027378508,5,original CLT items
3371,12,carrot,carrot,target,lower-right,18X9TEt7,orderA,1,möhre,3.36,low,m,5.834360027378508,5,original CLT items
2697,13,star,star,target,upper-left,18X9TEt7,orderA,1,stern,3.29,low,m,5.834360027378508,5,original CLT items
3146,14,scissors,scissors,target,upper-right,18X9TEt7,orderA,1,schere,3.38,low,m,5.834360027378508,5,original CLT items
2212,15,tiger,tiger,target,upper-right,18X9TEt7,orderA,1,tiger,3.88,middle,m,5.834360027378508,5,original CLT items
2794,16,bone,bone,target,lower-right,18X9TEt7,orderA,1,knochen,4.64,middle,m,5.834360027378508,5,original CLT items
3966,17,apple,apple,target,upper-left,18X9TEt7,orderA,1,apfel,2.71,low,m,5.834360027378508,5,original CLT items
2541,18,fish,fish,target,lower-left,18X9TEt7,orderA,1,fisch,2.76,low,m,5.834360027378508,5,original CLT items
4350,19,ant,ant,target,upper-right,18X9TEt7,orderA,1,ameise,4.6,middle,m,5.834360027378508,5,original CLT items
4603,20,belt,belt,target,lower-right,18X9TEt7,orderA,1,gürtel,4.11,middle,m,5.834360027378508,5,original CLT items
6045,21,fryingpan,fryingpan,target,upper-left,18X9TEt7,orderA,1,pfanne,4.16,middle,m,5.834360027378508,5,new items
4667,22,zebra,zebra,target,upper-right,18X9TEt7,orderA,1,zebra,3.65,middle,m,5.834360027378508,5,original CLT items
10881,23,needle,needle,target,upper-left,18X9TEt7,orderA,1,nadel,4.22,middle,m,5.834360027378508,5,original CLT items
3820,24,bicycle,bicycle,target,upper-right,18X9TEt7,orderA,1,fahrrad,3.8,middle,m,5.834360027378508,5,original CLT items
3580,25,ladder,ladder,target,upper-right,18X9TEt7,orderA,1,leiter,4.47,middle,m,5.834360027378508,5,original CLT items
3494,26,battery,battery,target,lower-right,18X9TEt7,orderA,1,batterie,5.94,middle,m,5.834360027378508,5,original CLT items
19029,27,elk,goblet,dist2,lower-right,18X9TEt7,orderA,0,elch,6.28,high,m,5.834360027378508,5,new items
14247,28,choir,choir,target,upper-right,18X9TEt7,orderA,1,chor,7.19,high,m,5.834360027378508,5,new items
2981,29,kangaroo,kangaroo,target,lower-left,18X9TEt7,orderA,1,känguru,5.89,middle,m,5.834360027378508,5,original CLT items
3906,30,ventilator,ventilator,target,upper-right,18X9TEt7,orderA,1,ventilator,6.59,high,m,5.834360027378508,5,new items
9752,31,arugula,brusselsprouts,dist1,lower-left,18X9TEt7,orderA,0,rucola,6.18,high,m,5.834360027378508,5,new items
2788,32,flag,flag,target,lower-right,18X9TEt7,orderA,1,flagge,5.86,middle,m,5.834360027378508,5,original CLT items
3686,33,giraffe,giraffe,target,upper-left,18X9TEt7,orderA,1,giraffe,3.79,middle,m,5.834360027378508,5,original CLT items
8075,34,palmtree,drinkingstraws,dist2,lower-right,18X9TEt7,orderA,0,palme,6.57,high,m,5.834360027378508,5,new items
2445,35,pineapple,pineapple,target,lower-right,18X9TEt7,orderA,1,ananas,4.1,middle,m,5.834360027378508,5,original CLT items
6714,36,ocean,pelican,dist2,lower-right,18X9TEt7,orderA,0,ozean,6.46,high,m,5.834360027378508,5,new items
5141,37,gazelle,dragonfly,dist2,upper-left,18X9TEt7,orderA,0,gazelle,6.31,high,m,5.834360027378508,5,new items
6677,38,ruler,ruler,target,lower-left,18X9TEt7,orderA,1,lineal,4.9,middle,m,5.834360027378508,5,original CLT items
8914,39,badger,badger,target,lower-left,18X9TEt7,orderA,1,dachs,6.17,high,m,5.834360027378508,5,new items
19382,40,chanterelle,chanterelle,target,upper-left,18X9TEt7,orderA,1,pfifferling,7.13,high,m,5.834360027378508,5,new items
6671,41,ruin,ruin,target,lower-right,18X9TEt7,orderA,1,ruine,6.21,high,m,5.834360027378508,5,new items
4416,42,labyrinth,labyrinth,target,lower-left,18X9TEt7,orderA,1,labyrinth,6.63,high,m,5.834360027378508,5,new items
24095,43,mushroom,mushroom,target,lower-right,18X9TEt7,orderA,1,pilz,3.67,middle,m,5.834360027378508,5,original CLT items
13724,44,orchid,banner,dist3,lower-right,18X9TEt7,orderA,0,orchidee,9.76,high,m,5.834360027378508,5,new items
4034,45,zucchini,zucchini,target,upper-right,18X9TEt7,orderA,1,zucchini,5.95,middle,m,5.834360027378508,5,new items
4162,46,kayak,kayak,target,upper-left,18X9TEt7,orderA,1,kajak,8.82,high,m,5.834360027378508,5,new items
3404,47,lobster,lobster,target,upper-right,18X9TEt7,orderA,1,hummer,8,high,m,5.834360027378508,5,new items
6194,48,jaguar,panther,dist1,lower-left,18X9TEt7,orderA,0,jaguar,7.64,high,m,5.834360027378508,5,new items
20141,49,carnation,carnation,target,upper-right,18X9TEt7,orderA,1,nelke,7.82,high,m,5.834360027378508,5,new items
9197,50,satellite,meteorid,dist2,lower-right,18X9TEt7,orderA,0,satellit,8.94,high,m,5.834360027378508,5,new items
8024,51,flounder,flounder,target,lower-right,18X9TEt7,orderA,1,flunder,6.95,high,m,5.834360027378508,5,new items
4279,52,cello,marshmallow,dist2,upper-right,18X9TEt7,orderA,0,cello,8.67,high,m,5.834360027378508,5,new items
7687,1,squirrel,squirrel,target,lower-left,1aaesBEa,orderA,1,eichhörnchen,2.6,low,f,7.756331279945243,7,original CLT items
7271,2,cap,cap,target,upper-right,1aaesBEa,orderA,1,mütze,1.95,low,f,7.756331279945243,7,original CLT items
4122,3,door,door,target,lower-left,1aaesBEa,orderA,1,tür,3.12,low,f,7.756331279945243,7,original CLT items
3793,4,stairs,stairs,target,lower-right,1aaesBEa,orderA,1,treppe,3.25,low,f,7.756331279945243,7,original CLT items
4600,5,desk,desk,target,lower-left,1aaesBEa,orderA,1,schreibtisch,3.2,low,f,7.756331279945243,7,original CLT items
3441,6,strawberry,strawberry,target,upper-left,1aaesBEa,orderA,1,erdbeere,3.47,low,f,7.756331279945243,7,original CLT items
3291,7,eye,eye,target,upper-left,1aaesBEa,orderA,1,auge,2.69,low,f,7.756331279945243,7,original CLT items
4026,8,plane,plane,target,lower-left,1aaesBEa,orderA,1,flugzeug,3.24,low,f,7.756331279945243,7,new items
2073,9,paintbrush,paintbrush,target,lower-left,1aaesBEa,orderA,1,pinsel,3.43,low,f,7.756331279945243,7,original CLT items
3053,10,telephone,telephone,target,upper-right,1aaesBEa,orderA,1,telefon,3.53,middle,f,7.756331279945243,7,original CLT items
3478,11,snake,snake,target,upper-left,1aaesBEa,orderA,1,schlange,2,low,f,7.756331279945243,7,original CLT items
2300,12,carrot,carrot,target,lower-right,1aaesBEa,orderA,1,möhre,3.36,low,f,7.756331279945243,7,original CLT items
3443,13,star,star,target,upper-left,1aaesBEa,orderA,1,stern,3.29,low,f,7.756331279945243,7,original CLT items
4025,14,scissors,scissors,target,upper-right,1aaesBEa,orderA,1,schere,3.38,low,f,7.756331279945243,7,original CLT items
2492,15,tiger,tiger,target,upper-right,1aaesBEa,orderA,1,tiger,3.88,middle,f,7.756331279945243,7,original CLT items
2186,16,bone,bone,target,lower-right,1aaesBEa,orderA,1,knochen,4.64,middle,f,7.756331279945243,7,original CLT items
6184,17,apple,apple,target,upper-left,1aaesBEa,orderA,1,apfel,2.71,low,f,7.756331279945243,7,original CLT items
5737,18,fish,fish,target,lower-left,1aaesBEa,orderA,1,fisch,2.76,low,f,7.756331279945243,7,original CLT items
5571,19,ant,ant,target,upper-right,1aaesBEa,orderA,1,ameise,4.6,middle,f,7.756331279945243,7,original CLT items
4917,20,belt,belt,target,lower-right,1aaesBEa,orderA,1,gürtel,4.11,middle,f,7.756331279945243,7,original CLT items
4116,21,fryingpan,fryingpan,target,upper-left,1aaesBEa,orderA,1,pfanne,4.16,middle,f,7.756331279945243,7,new items
3706,22,zebra,zebra,target,upper-right,1aaesBEa,orderA,1,zebra,3.65,middle,f,7.756331279945243,7,original CLT items
4218,23,needle,needle,target,upper-left,1aaesBEa,orderA,1,nadel,4.22,middle,f,7.756331279945243,7,original CLT items
3229,24,bicycle,bicycle,target,upper-right,1aaesBEa,orderA,1,fahrrad,3.8,middle,f,7.756331279945243,7,original CLT items
7309,25,ladder,ladder,target,upper-right,1aaesBEa,orderA,1,leiter,4.47,middle,f,7.756331279945243,7,original CLT items
2751,26,battery,battery,target,lower-right,1aaesBEa,orderA,1,batterie,5.94,middle,f,7.756331279945243,7,original CLT items
2956,27,elk,elk,target,upper-left,1aaesBEa,orderA,1,elch,6.28,high,f,7.756331279945243,7,new items
10608,28,choir,choir,target,upper-right,1aaesBEa,orderA,1,chor,7.19,high,f,7.756331279945243,7,new items
4843,29,kangaroo,kangaroo,target,lower-left,1aaesBEa,orderA,1,känguru,5.89,middle,f,7.756331279945243,7,original CLT items
4469,30,ventilator,ventilator,target,upper-right,1aaesBEa,orderA,1,ventilator,6.59,high,f,7.756331279945243,7,new items
16594,31,arugula,arugula,target,lower-right,1aaesBEa,orderA,1,rucola,6.18,high,f,7.756331279945243,7,new items
3597,32,flag,flag,target,lower-right,1aaesBEa,orderA,1,flagge,5.86,middle,f,7.756331279945243,7,original CLT items
4747,33,giraffe,giraffe,target,upper-left,1aaesBEa,orderA,1,giraffe,3.79,middle,f,7.756331279945243,7,original CLT items
5633,34,palmtree,palmtree,target,lower-left,1aaesBEa,orderA,1,palme,6.57,high,f,7.756331279945243,7,new items
4710,35,pineapple,pineapple,target,lower-right,1aaesBEa,orderA,1,ananas,4.1,middle,f,7.756331279945243,7,original CLT items
4038,36,ocean,ocean,target,upper-left,1aaesBEa,orderA,1,ozean,6.46,high,f,7.756331279945243,7,new items
9796,37,gazelle,gazelle,target,lower-right,1aaesBEa,orderA,1,gazelle,6.31,high,f,7.756331279945243,7,new items
4182,38,ruler,ruler,target,lower-left,1aaesBEa,orderA,1,lineal,4.9,middle,f,7.756331279945243,7,original CLT items
3382,39,badger,badger,target,lower-left,1aaesBEa,orderA,1,dachs,6.17,high,f,7.756331279945243,7,new items
19137,40,chanterelle,chanterelle,target,upper-left,1aaesBEa,orderA,1,pfifferling,7.13,high,f,7.756331279945243,7,new items
9305,41,ruin,ruin,target,lower-right,1aaesBEa,orderA,1,ruine,6.21,high,f,7.756331279945243,7,new items
2639,42,labyrinth,labyrinth,target,lower-left,1aaesBEa,orderA,1,labyrinth,6.63,high,f,7.756331279945243,7,new items
2325,43,mushroom,mushroom,target,lower-right,1aaesBEa,orderA,1,pilz,3.67,middle,f,7.756331279945243,7,original CLT items
5143,44,orchid,orchid,target,lower-left,1aaesBEa,orderA,1,orchidee,9.76,high,f,7.756331279945243,7,new items
3951,45,zucchini,zucchini,target,upper-right,1aaesBEa,orderA,1,zucchini,5.95,middle,f,7.756331279945243,7,new items
7282,46,kayak,boomerang,dist3,lower-right,1aaesBEa,orderA,0,kajak,8.82,high,f,7.756331279945243,7,new items
3110,47,lobster,lobster,target,upper-right,1aaesBEa,orderA,1,hummer,8,high,f,7.756331279945243,7,new items
1980,48,jaguar,jaguar,target,lower-right,1aaesBEa,orderA,1,jaguar,7.64,high,f,7.756331279945243,7,new items
9019,49,carnation,violets,dist1,lower-right,1aaesBEa,orderA,0,nelke,7.82,high,f,7.756331279945243,7,new items
7811,50,satellite,meteorid,dist2,lower-right,1aaesBEa,orderA,0,satellit,8.94,high,f,7.756331279945243,7,new items
19885,51,flounder,flounder,target,lower-right,1aaesBEa,orderA,1,flunder,6.95,high,f,7.756331279945243,7,new items
4159,52,cello,cello,target,lower-left,1aaesBEa,orderA,1,cello,8.67,high,f,7.756331279945243,7,new items
13972,1,door,door,target,lower-left,1GuQWuLR,orderB,1,tür,3.12,low,m,5.8507871321013,5,original CLT items
12812,2,stairs,stairs,target,lower-right,1GuQWuLR,orderB,1,treppe,3.25,low,m,5.8507871321013,5,original CLT items
10418,3,eye,eye,target,upper-left,1GuQWuLR,orderB,1,auge,2.69,low,m,5.8507871321013,5,original CLT items
9287,4,desk,desk,target,lower-left,1GuQWuLR,orderB,1,schreibtisch,3.2,low,m,5.8507871321013,5,original CLT items
6707,5,star,star,target,upper-left,1GuQWuLR,orderB,1,stern,3.29,low,m,5.8507871321013,5,original CLT items
6245,6,squirrel,squirrel,target,lower-left,1GuQWuLR,orderB,1,eichhörnchen,2.6,low,m,5.8507871321013,5,original CLT items
10698,7,cap,cap,target,upper-right,1GuQWuLR,orderB,1,mütze,1.95,low,m,5.8507871321013,5,original CLT items
8133,8,telephone,telephone,target,upper-right,1GuQWuLR,orderB,1,telefon,3.53,middle,m,5.8507871321013,5,original CLT items
10074,9,strawberry,strawberry,target,upper-left,1GuQWuLR,orderB,1,erdbeere,3.47,low,m,5.8507871321013,5,original CLT items
9190,10,scissors,scissors,target,upper-right,1GuQWuLR,orderB,1,schere,3.38,low,m,5.8507871321013,5,original CLT items
15067,11,bone,bone,target,lower-right,1GuQWuLR,orderB,1,knochen,4.64,middle,m,5.8507871321013,5,original CLT items
9453,12,paintbrush,paintbrush,target,lower-left,1GuQWuLR,orderB,1,pinsel,3.43,low,m,5.8507871321013,5,original CLT items
3408,13,fryingpan,fryingpan,target,upper-left,1GuQWuLR,orderB,1,pfanne,4.16,middle,m,5.8507871321013,5,new items
4547,14,carrot,carrot,target,lower-right,1GuQWuLR,orderB,1,möhre,3.36,low,m,5.8507871321013,5,original CLT items
5511,15,plane,plane,target,lower-left,1GuQWuLR,orderB,1,flugzeug,3.24,low,m,5.8507871321013,5,new items
8257,16,tiger,tiger,target,upper-right,1GuQWuLR,orderB,1,tiger,3.88,middle,m,5.8507871321013,5,original CLT items
7908,17,snake,snake,target,upper-left,1GuQWuLR,orderB,1,schlange,2,low,m,5.8507871321013,5,original CLT items
9183,18,apple,apple,target,upper-left,1GuQWuLR,orderB,1,apfel,2.71,low,m,5.8507871321013,5,original CLT items
8759,19,battery,battery,target,lower-right,1GuQWuLR,orderB,1,batterie,5.94,middle,m,5.8507871321013,5,original CLT items
3891,20,flag,flag,target,lower-right,1GuQWuLR,orderB,1,flagge,5.86,middle,m,5.8507871321013,5,original CLT items
8067,21,ladder,ladder,target,upper-right,1GuQWuLR,orderB,1,leiter,4.47,middle,m,5.8507871321013,5,original CLT items
14134,22,fish,fish,target,lower-left,1GuQWuLR,orderB,1,fisch,2.76,low,m,5.8507871321013,5,original CLT items
8539,23,giraffe,giraffe,target,upper-left,1GuQWuLR,orderB,1,giraffe,3.79,middle,m,5.8507871321013,5,original CLT items
7843,24,ant,ant,target,upper-right,1GuQWuLR,orderB,1,ameise,4.6,middle,m,5.8507871321013,5,original CLT items
15612,25,bicycle,bicycle,target,upper-right,1GuQWuLR,orderB,1,fahrrad,3.8,middle,m,5.8507871321013,5,original CLT items
18405,26,ruin,ruin,target,lower-right,1GuQWuLR,orderB,1,ruine,6.21,high,m,5.8507871321013,5,new items
27233,27,choir,choir,target,upper-right,1GuQWuLR,orderB,1,chor,7.19,high,m,5.8507871321013,5,new items
11801,28,pineapple,pineapple,target,lower-right,1GuQWuLR,orderB,1,ananas,4.1,middle,m,5.8507871321013,5,original CLT items
13171,29,zebra,zebra,target,upper-right,1GuQWuLR,orderB,1,zebra,3.65,middle,m,5.8507871321013,5,original CLT items
7067,30,belt,belt,target,lower-right,1GuQWuLR,orderB,1,gürtel,4.11,middle,m,5.8507871321013,5,original CLT items
5161,31,mushroom,mushroom,target,lower-right,1GuQWuLR,orderB,1,pilz,3.67,middle,m,5.8507871321013,5,original CLT items
8519,32,elk,elk,target,upper-left,1GuQWuLR,orderB,1,elch,6.28,high,m,5.8507871321013,5,new items
24794,33,needle,needle,target,upper-left,1GuQWuLR,orderB,1,nadel,4.22,middle,m,5.8507871321013,5,original CLT items
17528,34,arugula,arugula,target,lower-right,1GuQWuLR,orderB,1,rucola,6.18,high,m,5.8507871321013,5,new items
7122,35,palmtree,palmtree,target,lower-left,1GuQWuLR,orderB,1,palme,6.57,high,m,5.8507871321013,5,new items
5990,36,kangaroo,kangaroo,target,lower-left,1GuQWuLR,orderB,1,känguru,5.89,middle,m,5.8507871321013,5,original CLT items
18332,37,gazelle,gazelle,target,lower-right,1GuQWuLR,orderB,1,gazelle,6.31,high,m,5.8507871321013,5,new items
9923,38,badger,badger,target,lower-left,1GuQWuLR,orderB,1,dachs,6.17,high,m,5.8507871321013,5,new items
15539,39,chanterelle,chanterelle,target,upper-left,1GuQWuLR,orderB,1,pfifferling,7.13,high,m,5.8507871321013,5,new items
30200,40,orchid,orchid,target,lower-left,1GuQWuLR,orderB,1,orchidee,9.76,high,m,5.8507871321013,5,new items
17476,41,carnation,violets,dist1,lower-right,1GuQWuLR,orderB,0,nelke,7.82,high,m,5.8507871321013,5,new items
8392,42,ventilator,ventilator,target,upper-right,1GuQWuLR,orderB,1,ventilator,6.59,high,m,5.8507871321013,5,new items
7872,43,labyrinth,labyrinth,target,lower-left,1GuQWuLR,orderB,1,labyrinth,6.63,high,m,5.8507871321013,5,new items
19475,44,ocean,ocean,target,upper-left,1GuQWuLR,orderB,1,ozean,6.46,high,m,5.8507871321013,5,new items
51307,45,lobster,lobster,target,upper-right,1GuQWuLR,orderB,1,hummer,8,high,m,5.8507871321013,5,new items
8872,46,cello,cello,target,lower-left,1GuQWuLR,orderB,1,cello,8.67,high,m,5.8507871321013,5,new items
14835,47,kayak,kayak,target,upper-left,1GuQWuLR,orderB,1,kajak,8.82,high,m,5.8507871321013,5,new items
5458,48,ruler,ruler,target,lower-left,1GuQWuLR,orderB,1,lineal,4.9,middle,m,5.8507871321013,5,original CLT items
20328,49,jaguar,jaguar,target,lower-right,1GuQWuLR,orderB,1,jaguar,7.64,high,m,5.8507871321013,5,new items
54952,50,flounder,flounder,target,lower-right,1GuQWuLR,orderB,1,flunder,6.95,high,m,5.8507871321013,5,new items
11846,51,satellite,satellite,target,upper-left,1GuQWuLR,orderB,1,satellit,8.94,high,m,5.8507871321013,5,new items
10274,52,zucchini,zucchini,target,upper-right,1GuQWuLR,orderB,1,zucchini,5.95,middle,m,5.8507871321013,5,new items
8304,1,door,door,target,lower-left,1pputetn,orderB,1,tür,3.12,low,m,7.753593429158111,7,original CLT items
4211,2,stairs,stairs,target,lower-right,1pputetn,orderB,1,treppe,3.25,low,m,7.753593429158111,7,original CLT items
5261,3,eye,eye,target,upper-left,1pputetn,orderB,1,auge,2.69,low,m,7.753593429158111,7,original CLT items
4499,4,desk,desk,target,lower-left,1pputetn,orderB,1,schreibtisch,3.2,low,m,7.753593429158111,7,original CLT items
5010,5,star,star,target,upper-left,1pputetn,orderB,1,stern,3.29,low,m,7.753593429158111,7,original CLT items
2752,6,squirrel,squirrel,target,lower-left,1pputetn,orderB,1,eichhörnchen,2.6,low,m,7.753593429158111,7,original CLT items
2979,7,cap,cap,target,upper-right,1pputetn,orderB,1,mütze,1.95,low,m,7.753593429158111,7,original CLT items
3183,8,telephone,telephone,target,upper-right,1pputetn,orderB,1,telefon,3.53,middle,m,7.753593429158111,7,original CLT items
3252,9,strawberry,strawberry,target,upper-left,1pputetn,orderB,1,erdbeere,3.47,low,m,7.753593429158111,7,original CLT items
2669,10,scissors,scissors,target,upper-right,1pputetn,orderB,1,schere,3.38,low,m,7.753593429158111,7,original CLT items
3082,11,bone,bone,target,lower-right,1pputetn,orderB,1,knochen,4.64,middle,m,7.753593429158111,7,original CLT items
2829,12,paintbrush,paintbrush,target,lower-left,1pputetn,orderB,1,pinsel,3.43,low,m,7.753593429158111,7,original CLT items
3528,13,fryingpan,fryingpan,target,upper-left,1pputetn,orderB,1,pfanne,4.16,middle,m,7.753593429158111,7,new items
2804,14,carrot,carrot,target,lower-right,1pputetn,orderB,1,möhre,3.36,low,m,7.753593429158111,7,original CLT items
6890,15,plane,plane,target,lower-left,1pputetn,orderB,1,flugzeug,3.24,low,m,7.753593429158111,7,new items
4743,16,tiger,tiger,target,upper-right,1pputetn,orderB,1,tiger,3.88,middle,m,7.753593429158111,7,original CLT items
3609,17,snake,snake,target,upper-left,1pputetn,orderB,1,schlange,2,low,m,7.753593429158111,7,original CLT items
2856,18,apple,apple,target,upper-left,1pputetn,orderB,1,apfel,2.71,low,m,7.753593429158111,7,original CLT items
4227,19,battery,battery,target,lower-right,1pputetn,orderB,1,batterie,5.94,middle,m,7.753593429158111,7,original CLT items
3546,20,flag,flag,target,lower-right,1pputetn,orderB,1,flagge,5.86,middle,m,7.753593429158111,7,original CLT items
3639,21,ladder,ladder,target,upper-right,1pputetn,orderB,1,leiter,4.47,middle,m,7.753593429158111,7,original CLT items
3556,22,fish,fish,target,lower-left,1pputetn,orderB,1,fisch,2.76,low,m,7.753593429158111,7,original CLT items
6992,23,giraffe,giraffe,target,upper-left,1pputetn,orderB,1,giraffe,3.79,middle,m,7.753593429158111,7,original CLT items
4040,24,ant,ant,target,upper-right,1pputetn,orderB,1,ameise,4.6,middle,m,7.753593429158111,7,original CLT items
4021,25,bicycle,bicycle,target,upper-right,1pputetn,orderB,1,fahrrad,3.8,middle,m,7.753593429158111,7,original CLT items
14936,26,ruin,ruin,target,lower-right,1pputetn,orderB,1,ruine,6.21,high,m,7.753593429158111,7,new items
8705,27,choir,choir,target,upper-right,1pputetn,orderB,1,chor,7.19,high,m,7.753593429158111,7,new items
2800,28,pineapple,pineapple,target,lower-right,1pputetn,orderB,1,ananas,4.1,middle,m,7.753593429158111,7,original CLT items
3256,29,zebra,zebra,target,upper-right,1pputetn,orderB,1,zebra,3.65,middle,m,7.753593429158111,7,original CLT items
8422,30,belt,belt,target,lower-right,1pputetn,orderB,1,gürtel,4.11,middle,m,7.753593429158111,7,original CLT items
8297,31,mushroom,mushroom,target,lower-right,1pputetn,orderB,1,pilz,3.67,middle,m,7.753593429158111,7,original CLT items
4008,32,elk,elk,target,upper-left,1pputetn,orderB,1,elch,6.28,high,m,7.753593429158111,7,new items
2992,33,needle,needle,target,upper-left,1pputetn,orderB,1,nadel,4.22,middle,m,7.753593429158111,7,original CLT items
13695,34,arugula,arugula,target,lower-right,1pputetn,orderB,1,rucola,6.18,high,m,7.753593429158111,7,new items
6884,35,palmtree,palmtree,target,lower-left,1pputetn,orderB,1,palme,6.57,high,m,7.753593429158111,7,new items
2465,36,kangaroo,kangaroo,target,lower-left,1pputetn,orderB,1,känguru,5.89,middle,m,7.753593429158111,7,original CLT items
10253,37,gazelle,deer,dist1,upper-right,1pputetn,orderB,0,gazelle,6.31,high,m,7.753593429158111,7,new items
2358,38,badger,raccoon,dist1,lower-right,1pputetn,orderB,0,dachs,6.17,high,m,7.753593429158111,7,new items
16672,39,chanterelle,chanterelle,target,upper-left,1pputetn,orderB,1,pfifferling,7.13,high,m,7.753593429158111,7,new items
9678,40,orchid,orchid,target,lower-left,1pputetn,orderB,1,orchidee,9.76,high,m,7.753593429158111,7,new items
31982,41,carnation,violets,dist1,lower-right,1pputetn,orderB,0,nelke,7.82,high,m,7.753593429158111,7,new items
3489,42,ventilator,ventilator,target,upper-right,1pputetn,orderB,1,ventilator,6.59,high,m,7.753593429158111,7,new items
3111,43,labyrinth,labyrinth,target,lower-left,1pputetn,orderB,1,labyrinth,6.63,high,m,7.753593429158111,7,new items
3567,44,ocean,ocean,target,upper-left,1pputetn,orderB,1,ozean,6.46,high,m,7.753593429158111,7,new items
3263,45,lobster,lobster,target,upper-right,1pputetn,orderB,1,hummer,8,high,m,7.753593429158111,7,new items
4880,46,cello,harp,dist1,lower-right,1pputetn,orderB,0,cello,8.67,high,m,7.753593429158111,7,new items
16207,47,kayak,kayak,target,upper-left,1pputetn,orderB,1,kajak,8.82,high,m,7.753593429158111,7,new items
2859,48,ruler,ruler,target,lower-left,1pputetn,orderB,1,lineal,4.9,middle,m,7.753593429158111,7,original CLT items
9643,49,jaguar,panther,dist1,lower-left,1pputetn,orderB,0,jaguar,7.64,high,m,7.753593429158111,7,new items
5468,50,flounder,flounder,target,lower-right,1pputetn,orderB,1,flunder,6.95,high,m,7.753593429158111,7,new items
5324,51,satellite,satellite,target,upper-left,1pputetn,orderB,1,satellit,8.94,high,m,7.753593429158111,7,new items
4063,52,zucchini,zucchini,target,upper-right,1pputetn,orderB,1,zucchini,5.95,middle,m,7.753593429158111,7,new items
3627,1,squirrel,squirrel,target,lower-left,1VTSBPTe,orderA,1,eichhörnchen,2.6,low,f,5.768651608487337,5,original CLT items
3520,2,cap,cap,target,upper-right,1VTSBPTe,orderA,1,mütze,1.95,low,f,5.768651608487337,5,original CLT items
3051,3,door,door,target,lower-left,1VTSBPTe,orderA,1,tür,3.12,low,f,5.768651608487337,5,original CLT items
2882,4,stairs,stairs,target,lower-right,1VTSBPTe,orderA,1,treppe,3.25,low,f,5.768651608487337,5,original CLT items
6045,5,desk,desk,target,lower-left,1VTSBPTe,orderA,1,schreibtisch,3.2,low,f,5.768651608487337,5,original CLT items
2317,6,strawberry,strawberry,target,upper-left,1VTSBPTe,orderA,1,erdbeere,3.47,low,f,5.768651608487337,5,original CLT items
1625,7,eye,eye,target,upper-left,1VTSBPTe,orderA,1,auge,2.69,low,f,5.768651608487337,5,original CLT items
3787,8,plane,plane,target,lower-left,1VTSBPTe,orderA,1,flugzeug,3.24,low,f,5.768651608487337,5,new items
4084,9,paintbrush,paintbrush,target,lower-left,1VTSBPTe,orderA,1,pinsel,3.43,low,f,5.768651608487337,5,original CLT items
3314,10,telephone,telephone,target,upper-right,1VTSBPTe,orderA,1,telefon,3.53,middle,f,5.768651608487337,5,original CLT items
2806,11,snake,snake,target,upper-left,1VTSBPTe,orderA,1,schlange,2,low,f,5.768651608487337,5,original CLT items
3367,12,carrot,carrot,target,lower-right,1VTSBPTe,orderA,1,möhre,3.36,low,f,5.768651608487337,5,original CLT items
1803,13,star,star,target,upper-left,1VTSBPTe,orderA,1,stern,3.29,low,f,5.768651608487337,5,original CLT items
2887,14,scissors,scissors,target,upper-right,1VTSBPTe,orderA,1,schere,3.38,low,f,5.768651608487337,5,original CLT items
2486,15,tiger,tiger,target,upper-right,1VTSBPTe,orderA,1,tiger,3.88,middle,f,5.768651608487337,5,original CLT items
1371,16,bone,bone,target,lower-right,1VTSBPTe,orderA,1,knochen,4.64,middle,f,5.768651608487337,5,original CLT items
1586,17,apple,apple,target,upper-left,1VTSBPTe,orderA,1,apfel,2.71,low,f,5.768651608487337,5,original CLT items
2858,18,fish,fish,target,lower-left,1VTSBPTe,orderA,1,fisch,2.76,low,f,5.768651608487337,5,original CLT items
1929,19,ant,ant,target,upper-right,1VTSBPTe,orderA,1,ameise,4.6,middle,f,5.768651608487337,5,original CLT items
2114,20,belt,belt,target,lower-right,1VTSBPTe,orderA,1,gürtel,4.11,middle,f,5.768651608487337,5,original CLT items
3917,21,fryingpan,fryingpan,target,upper-left,1VTSBPTe,orderA,1,pfanne,4.16,middle,f,5.768651608487337,5,new items
2819,22,zebra,zebra,target,upper-right,1VTSBPTe,orderA,1,zebra,3.65,middle,f,5.768651608487337,5,original CLT items
3641,23,needle,needle,target,upper-left,1VTSBPTe,orderA,1,nadel,4.22,middle,f,5.768651608487337,5,original CLT items
3188,24,bicycle,bicycle,target,upper-right,1VTSBPTe,orderA,1,fahrrad,3.8,middle,f,5.768651608487337,5,original CLT items
5397,25,ladder,ladder,target,upper-right,1VTSBPTe,orderA,1,leiter,4.47,middle,f,5.768651608487337,5,original CLT items
6980,26,battery,battery,target,lower-right,1VTSBPTe,orderA,1,batterie,5.94,middle,f,5.768651608487337,5,original CLT items
47497,27,elk,elk,target,upper-left,1VTSBPTe,orderA,1,elch,6.28,high,f,5.768651608487337,5,new items
88073,28,choir,orchestra,dist1,lower-right,1VTSBPTe,orderA,0,chor,7.19,high,f,5.768651608487337,5,new items
2418,29,kangaroo,kangaroo,target,lower-left,1VTSBPTe,orderA,1,känguru,5.89,middle,f,5.768651608487337,5,original CLT items
4041,30,ventilator,ventilator,target,upper-right,1VTSBPTe,orderA,1,ventilator,6.59,high,f,5.768651608487337,5,new items
50648,31,arugula,dracula,dist2,upper-left,1VTSBPTe,orderA,0,rucola,6.18,high,f,5.768651608487337,5,new items
2881,32,flag,flag,target,lower-right,1VTSBPTe,orderA,1,flagge,5.86,middle,f,5.768651608487337,5,original CLT items
1763,33,giraffe,giraffe,target,upper-left,1VTSBPTe,orderA,1,giraffe,3.79,middle,f,5.768651608487337,5,original CLT items
8867,34,palmtree,cactus,dist1,upper-right,1VTSBPTe,orderA,0,palme,6.57,high,f,5.768651608487337,5,new items
2742,35,pineapple,pineapple,target,lower-right,1VTSBPTe,orderA,1,ananas,4.1,middle,f,5.768651608487337,5,original CLT items
7273,36,ocean,ocean,target,upper-left,1VTSBPTe,orderA,1,ozean,6.46,high,f,5.768651608487337,5,new items
14251,37,gazelle,dragonfly,dist2,upper-left,1VTSBPTe,orderA,0,gazelle,6.31,high,f,5.768651608487337,5,new items
3168,38,ruler,ruler,target,lower-left,1VTSBPTe,orderA,1,lineal,4.9,middle,f,5.768651608487337,5,original CLT items
4227,39,badger,badger,target,lower-left,1VTSBPTe,orderA,1,dachs,6.17,high,f,5.768651608487337,5,new items
2594,40,chanterelle,chanterelle,target,upper-left,1VTSBPTe,orderA,1,pfifferling,7.13,high,f,5.768651608487337,5,new items
4560,41,ruin,fortress,dist1,upper-right,1VTSBPTe,orderA,0,ruine,6.21,high,f,5.768651608487337,5,new items
2234,42,labyrinth,whirlwind,dist2,lower-right,1VTSBPTe,orderA,0,labyrinth,6.63,high,f,5.768651608487337,5,new items
1740,43,mushroom,mushroom,target,lower-right,1VTSBPTe,orderA,1,pilz,3.67,middle,f,5.768651608487337,5,original CLT items
6442,44,orchid,banner,dist3,lower-right,1VTSBPTe,orderA,0,orchidee,9.76,high,f,5.768651608487337,5,new items
6269,45,zucchini,zucchini,target,upper-right,1VTSBPTe,orderA,1,zucchini,5.95,middle,f,5.768651608487337,5,new items
2518,46,kayak,kayak,target,upper-left,1VTSBPTe,orderA,1,kajak,8.82,high,f,5.768651608487337,5,new items
1992,47,lobster,clip,dist2,lower-left,1VTSBPTe,orderA,0,hummer,8,high,f,5.768651608487337,5,new items
3187,48,jaguar,jaguar,target,lower-right,1VTSBPTe,orderA,1,jaguar,7.64,high,f,5.768651608487337,5,new items
4514,49,carnation,compass,dist3,upper-left,1VTSBPTe,orderA,0,nelke,7.82,high,f,5.768651608487337,5,new items
12085,50,satellite,rocket,dist1,upper-right,1VTSBPTe,orderA,0,satellit,8.94,high,f,5.768651608487337,5,new items
4589,51,flounder,pyramid,dist3,upper-right,1VTSBPTe,orderA,0,flunder,6.95,high,f,5.768651608487337,5,new items
3440,52,cello,cello,target,lower-left,1VTSBPTe,orderA,1,cello,8.67,high,f,5.768651608487337,5,new items
7005,1,squirrel,squirrel,target,lower-left,1XKPmPrA,orderA,1,eichhörnchen,2.6,low,m,5.68104038329911,5,original CLT items
4301,2,cap,cap,target,upper-right,1XKPmPrA,orderA,1,mütze,1.95,low,m,5.68104038329911,5,original CLT items
3609,3,door,door,target,lower-left,1XKPmPrA,orderA,1,tür,3.12,low,m,5.68104038329911,5,original CLT items
3693,4,stairs,stairs,target,lower-right,1XKPmPrA,orderA,1,treppe,3.25,low,m,5.68104038329911,5,original CLT items
4979,5,desk,desk,target,lower-left,1XKPmPrA,orderA,1,schreibtisch,3.2,low,m,5.68104038329911,5,original CLT items
5010,6,strawberry,strawberry,target,upper-left,1XKPmPrA,orderA,1,erdbeere,3.47,low,m,5.68104038329911,5,original CLT items
2273,7,eye,eye,target,upper-left,1XKPmPrA,orderA,1,auge,2.69,low,m,5.68104038329911,5,original CLT items
9529,8,plane,plane,target,lower-left,1XKPmPrA,orderA,1,flugzeug,3.24,low,m,5.68104038329911,5,new items
2632,9,paintbrush,paintbrush,target,lower-left,1XKPmPrA,orderA,1,pinsel,3.43,low,m,5.68104038329911,5,original CLT items
4628,10,telephone,telephone,target,upper-right,1XKPmPrA,orderA,1,telefon,3.53,middle,m,5.68104038329911,5,original CLT items
1978,11,snake,snake,target,upper-left,1XKPmPrA,orderA,1,schlange,2,low,m,5.68104038329911,5,original CLT items
2057,12,carrot,carrot,target,lower-right,1XKPmPrA,orderA,1,möhre,3.36,low,m,5.68104038329911,5,original CLT items
1918,13,star,star,target,upper-left,1XKPmPrA,orderA,1,stern,3.29,low,m,5.68104038329911,5,original CLT items
1660,14,scissors,scissors,target,upper-right,1XKPmPrA,orderA,1,schere,3.38,low,m,5.68104038329911,5,original CLT items
1870,15,tiger,tiger,target,upper-right,1XKPmPrA,orderA,1,tiger,3.88,middle,m,5.68104038329911,5,original CLT items
2077,16,bone,bone,target,lower-right,1XKPmPrA,orderA,1,knochen,4.64,middle,m,5.68104038329911,5,original CLT items
2087,17,apple,apple,target,upper-left,1XKPmPrA,orderA,1,apfel,2.71,low,m,5.68104038329911,5,original CLT items
2185,18,fish,fish,target,lower-left,1XKPmPrA,orderA,1,fisch,2.76,low,m,5.68104038329911,5,original CLT items
1951,19,ant,ant,target,upper-right,1XKPmPrA,orderA,1,ameise,4.6,middle,m,5.68104038329911,5,original CLT items
1867,20,belt,belt,target,lower-right,1XKPmPrA,orderA,1,gürtel,4.11,middle,m,5.68104038329911,5,original CLT items
2984,21,fryingpan,fryingpan,target,upper-left,1XKPmPrA,orderA,1,pfanne,4.16,middle,m,5.68104038329911,5,new items
2535,22,zebra,zebra,target,upper-right,1XKPmPrA,orderA,1,zebra,3.65,middle,m,5.68104038329911,5,original CLT items
3344,23,needle,needle,target,upper-left,1XKPmPrA,orderA,1,nadel,4.22,middle,m,5.68104038329911,5,original CLT items
2885,24,bicycle,bicycle,target,upper-right,1XKPmPrA,orderA,1,fahrrad,3.8,middle,m,5.68104038329911,5,original CLT items
3174,25,ladder,ladder,target,upper-right,1XKPmPrA,orderA,1,leiter,4.47,middle,m,5.68104038329911,5,original CLT items
3019,26,battery,battery,target,lower-right,1XKPmPrA,orderA,1,batterie,5.94,middle,m,5.68104038329911,5,original CLT items
2164,27,elk,elk,target,upper-left,1XKPmPrA,orderA,1,elch,6.28,high,m,5.68104038329911,5,new items
7729,28,choir,orchestra,dist1,lower-right,1XKPmPrA,orderA,0,chor,7.19,high,m,5.68104038329911,5,new items
3089,29,kangaroo,kangaroo,target,lower-left,1XKPmPrA,orderA,1,känguru,5.89,middle,m,5.68104038329911,5,original CLT items
2489,30,ventilator,ventilator,target,upper-right,1XKPmPrA,orderA,1,ventilator,6.59,high,m,5.68104038329911,5,new items
6041,31,arugula,dracula,dist2,upper-left,1XKPmPrA,orderA,0,rucola,6.18,high,m,5.68104038329911,5,new items
3470,32,flag,flag,target,lower-right,1XKPmPrA,orderA,1,flagge,5.86,middle,m,5.68104038329911,5,original CLT items
1791,33,giraffe,giraffe,target,upper-left,1XKPmPrA,orderA,1,giraffe,3.79,middle,m,5.68104038329911,5,original CLT items
2017,34,palmtree,palmtree,target,lower-left,1XKPmPrA,orderA,1,palme,6.57,high,m,5.68104038329911,5,new items
1930,35,pineapple,pineapple,target,lower-right,1XKPmPrA,orderA,1,ananas,4.1,middle,m,5.68104038329911,5,original CLT items
3996,36,ocean,ocean,target,upper-left,1XKPmPrA,orderA,1,ozean,6.46,high,m,5.68104038329911,5,new items
10454,37,gazelle,dragonfly,dist2,upper-left,1XKPmPrA,orderA,0,gazelle,6.31,high,m,5.68104038329911,5,new items
3520,38,ruler,ruler,target,lower-left,1XKPmPrA,orderA,1,lineal,4.9,middle,m,5.68104038329911,5,original CLT items
4828,39,badger,badger,target,lower-left,1XKPmPrA,orderA,1,dachs,6.17,high,m,5.68104038329911,5,new items
5436,40,chanterelle,chanterelle,target,upper-left,1XKPmPrA,orderA,1,pfifferling,7.13,high,m,5.68104038329911,5,new items
10192,41,ruin,ruin,target,lower-right,1XKPmPrA,orderA,1,ruine,6.21,high,m,5.68104038329911,5,new items
2882,42,labyrinth,labyrinth,target,lower-left,1XKPmPrA,orderA,1,labyrinth,6.63,high,m,5.68104038329911,5,new items
2572,43,mushroom,mushroom,target,lower-right,1XKPmPrA,orderA,1,pilz,3.67,middle,m,5.68104038329911,5,original CLT items
6563,44,orchid,orchid,target,lower-left,1XKPmPrA,orderA,1,orchidee,9.76,high,m,5.68104038329911,5,new items
3518,45,zucchini,zucchini,target,upper-right,1XKPmPrA,orderA,1,zucchini,5.95,middle,m,5.68104038329911,5,new items
6029,46,kayak,kayak,target,upper-left,1XKPmPrA,orderA,1,kajak,8.82,high,m,5.68104038329911,5,new items
5271,47,lobster,lobster,target,upper-right,1XKPmPrA,orderA,1,hummer,8,high,m,5.68104038329911,5,new items
7382,48,jaguar,jaguar,target,lower-right,1XKPmPrA,orderA,1,jaguar,7.64,high,m,5.68104038329911,5,new items
6379,49,carnation,compass,dist3,upper-left,1XKPmPrA,orderA,0,nelke,7.82,high,m,5.68104038329911,5,new items
10418,50,satellite,cell,dist3,lower-left,1XKPmPrA,orderA,0,satellit,8.94,high,m,5.68104038329911,5,new items
5884,51,flounder,flounder,target,lower-right,1XKPmPrA,orderA,1,flunder,6.95,high,m,5.68104038329911,5,new items
8210,52,cello,marshmallow,dist2,upper-right,1XKPmPrA,orderA,0,cello,8.67,high,m,5.68104038329911,5,new items
3367,1,door,door,target,lower-left,29UVW1xE,orderB,1,tür,3.12,low,m,7.994524298425736,7,original CLT items
2488,2,stairs,stairs,target,lower-right,29UVW1xE,orderB,1,treppe,3.25,low,m,7.994524298425736,7,original CLT items
3837,3,eye,eye,target,upper-left,29UVW1xE,orderB,1,auge,2.69,low,m,7.994524298425736,7,original CLT items
3383,4,desk,desk,target,lower-left,29UVW1xE,orderB,1,schreibtisch,3.2,low,m,7.994524298425736,7,original CLT items
3983,5,star,star,target,upper-left,29UVW1xE,orderB,1,stern,3.29,low,m,7.994524298425736,7,original CLT items
2365,6,squirrel,squirrel,target,lower-left,29UVW1xE,orderB,1,eichhörnchen,2.6,low,m,7.994524298425736,7,original CLT items
2279,7,cap,cap,target,upper-right,29UVW1xE,orderB,1,mütze,1.95,low,m,7.994524298425736,7,original CLT items
2400,8,telephone,telephone,target,upper-right,29UVW1xE,orderB,1,telefon,3.53,middle,m,7.994524298425736,7,original CLT items
2671,9,strawberry,strawberry,target,upper-left,29UVW1xE,orderB,1,erdbeere,3.47,low,m,7.994524298425736,7,original CLT items
1992,10,scissors,scissors,target,upper-right,29UVW1xE,orderB,1,schere,3.38,low,m,7.994524298425736,7,original CLT items
2303,11,bone,bone,target,lower-right,29UVW1xE,orderB,1,knochen,4.64,middle,m,7.994524298425736,7,original CLT items
2231,12,paintbrush,paintbrush,target,lower-left,29UVW1xE,orderB,1,pinsel,3.43,low,m,7.994524298425736,7,original CLT items
3438,13,fryingpan,fryingpan,target,upper-left,29UVW1xE,orderB,1,pfanne,4.16,middle,m,7.994524298425736,7,new items
3736,14,carrot,carrot,target,lower-right,29UVW1xE,orderB,1,möhre,3.36,low,m,7.994524298425736,7,original CLT items
2295,15,plane,plane,target,lower-left,29UVW1xE,orderB,1,flugzeug,3.24,low,m,7.994524298425736,7,new items
2527,16,tiger,tiger,target,upper-right,29UVW1xE,orderB,1,tiger,3.88,middle,m,7.994524298425736,7,original CLT items
1951,17,snake,snake,target,upper-left,29UVW1xE,orderB,1,schlange,2,low,m,7.994524298425736,7,original CLT items
2144,18,apple,apple,target,upper-left,29UVW1xE,orderB,1,apfel,2.71,low,m,7.994524298425736,7,original CLT items
2351,19,battery,battery,target,lower-right,29UVW1xE,orderB,1,batterie,5.94,middle,m,7.994524298425736,7,original CLT items
2016,20,flag,flag,target,lower-right,29UVW1xE,orderB,1,flagge,5.86,middle,m,7.994524298425736,7,original CLT items
3695,21,ladder,ladder,target,upper-right,29UVW1xE,orderB,1,leiter,4.47,middle,m,7.994524298425736,7,original CLT items
2672,22,fish,fish,target,lower-left,29UVW1xE,orderB,1,fisch,2.76,low,m,7.994524298425736,7,original CLT items
5774,23,giraffe,giraffe,target,upper-left,29UVW1xE,orderB,1,giraffe,3.79,middle,m,7.994524298425736,7,original CLT items
2687,24,ant,ant,target,upper-right,29UVW1xE,orderB,1,ameise,4.6,middle,m,7.994524298425736,7,original CLT items
2854,25,bicycle,bicycle,target,upper-right,29UVW1xE,orderB,1,fahrrad,3.8,middle,m,7.994524298425736,7,original CLT items
3472,26,ruin,ruin,target,lower-right,29UVW1xE,orderB,1,ruine,6.21,high,m,7.994524298425736,7,new items
3527,27,choir,orchestra,dist1,lower-right,29UVW1xE,orderB,0,chor,7.19,high,m,7.994524298425736,7,new items
3008,28,pineapple,pineapple,target,lower-right,29UVW1xE,orderB,1,ananas,4.1,middle,m,7.994524298425736,7,original CLT items
2439,29,zebra,zebra,target,upper-right,29UVW1xE,orderB,1,zebra,3.65,middle,m,7.994524298425736,7,original CLT items
1999,30,belt,belt,target,lower-right,29UVW1xE,orderB,1,gürtel,4.11,middle,m,7.994524298425736,7,original CLT items
4422,31,mushroom,mushroom,target,lower-right,29UVW1xE,orderB,1,pilz,3.67,middle,m,7.994524298425736,7,original CLT items
3911,32,elk,elk,target,upper-left,29UVW1xE,orderB,1,elch,6.28,high,m,7.994524298425736,7,new items
2344,33,needle,needle,target,upper-left,29UVW1xE,orderB,1,nadel,4.22,middle,m,7.994524298425736,7,original CLT items
5720,34,arugula,arugula,target,lower-right,29UVW1xE,orderB,1,rucola,6.18,high,m,7.994524298425736,7,new items
3224,35,palmtree,palmtree,target,lower-left,29UVW1xE,orderB,1,palme,6.57,high,m,7.994524298425736,7,new items
2414,36,kangaroo,kangaroo,target,lower-left,29UVW1xE,orderB,1,känguru,5.89,middle,m,7.994524298425736,7,original CLT items
9870,37,gazelle,gazelle,target,lower-right,29UVW1xE,orderB,1,gazelle,6.31,high,m,7.994524298425736,7,new items
3216,38,badger,badger,target,lower-left,29UVW1xE,orderB,1,dachs,6.17,high,m,7.994524298425736,7,new items
4062,39,chanterelle,chanterelle,target,upper-left,29UVW1xE,orderB,1,pfifferling,7.13,high,m,7.994524298425736,7,new items
7960,40,orchid,orchid,target,lower-left,29UVW1xE,orderB,1,orchidee,9.76,high,m,7.994524298425736,7,new items
5535,41,carnation,carnation,target,upper-right,29UVW1xE,orderB,1,nelke,7.82,high,m,7.994524298425736,7,new items
3087,42,ventilator,ventilator,target,upper-right,29UVW1xE,orderB,1,ventilator,6.59,high,m,7.994524298425736,7,new items
2310,43,labyrinth,labyrinth,target,lower-left,29UVW1xE,orderB,1,labyrinth,6.63,high,m,7.994524298425736,7,new items
3015,44,ocean,ocean,target,upper-left,29UVW1xE,orderB,1,ozean,6.46,high,m,7.994524298425736,7,new items
4536,45,lobster,lobster,target,upper-right,29UVW1xE,orderB,1,hummer,8,high,m,7.994524298425736,7,new items
13055,46,cello,cello,target,lower-left,29UVW1xE,orderB,1,cello,8.67,high,m,7.994524298425736,7,new items
5383,47,kayak,kayak,target,upper-left,29UVW1xE,orderB,1,kajak,8.82,high,m,7.994524298425736,7,new items
2286,48,ruler,ruler,target,lower-left,29UVW1xE,orderB,1,lineal,4.9,middle,m,7.994524298425736,7,original CLT items
4622,49,jaguar,jaguar,target,lower-right,29UVW1xE,orderB,1,jaguar,7.64,high,m,7.994524298425736,7,new items
6087,50,flounder,flounder,target,lower-right,29UVW1xE,orderB,1,flunder,6.95,high,m,7.994524298425736,7,new items
3791,51,satellite,satellite,target,upper-left,29UVW1xE,orderB,1,satellit,8.94,high,m,7.994524298425736,7,new items
2711,52,zucchini,zucchini,target,upper-right,29UVW1xE,orderB,1,zucchini,5.95,middle,m,7.994524298425736,7,new items
3730,1,squirrel,squirrel,target,lower-left,2AcAMqCP,orderA,1,eichhörnchen,2.6,low,m,6.453114305270363,6,original CLT items
9955,2,cap,cap,target,upper-right,2AcAMqCP,orderA,1,mütze,1.95,low,m,6.453114305270363,6,original CLT items
2646,3,door,door,target,lower-left,2AcAMqCP,orderA,1,tür,3.12,low,m,6.453114305270363,6,original CLT items
4236,4,stairs,stairs,target,lower-right,2AcAMqCP,orderA,1,treppe,3.25,low,m,6.453114305270363,6,original CLT items
5153,5,desk,desk,target,lower-left,2AcAMqCP,orderA,1,schreibtisch,3.2,low,m,6.453114305270363,6,original CLT items
2119,6,strawberry,strawberry,target,upper-left,2AcAMqCP,orderA,1,erdbeere,3.47,low,m,6.453114305270363,6,original CLT items
2987,7,eye,eye,target,upper-left,2AcAMqCP,orderA,1,auge,2.69,low,m,6.453114305270363,6,original CLT items
1883,8,plane,plane,target,lower-left,2AcAMqCP,orderA,1,flugzeug,3.24,low,m,6.453114305270363,6,new items
2764,9,paintbrush,paintbrush,target,lower-left,2AcAMqCP,orderA,1,pinsel,3.43,low,m,6.453114305270363,6,original CLT items
1805,10,telephone,telephone,target,upper-right,2AcAMqCP,orderA,1,telefon,3.53,middle,m,6.453114305270363,6,original CLT items
2776,11,snake,snake,target,upper-left,2AcAMqCP,orderA,1,schlange,2,low,m,6.453114305270363,6,original CLT items
2679,12,carrot,carrot,target,lower-right,2AcAMqCP,orderA,1,möhre,3.36,low,m,6.453114305270363,6,original CLT items
1580,13,star,star,target,upper-left,2AcAMqCP,orderA,1,stern,3.29,low,m,6.453114305270363,6,original CLT items
1706,14,scissors,scissors,target,upper-right,2AcAMqCP,orderA,1,schere,3.38,low,m,6.453114305270363,6,original CLT items
1609,15,tiger,tiger,target,upper-right,2AcAMqCP,orderA,1,tiger,3.88,middle,m,6.453114305270363,6,original CLT items
1805,16,bone,bone,target,lower-right,2AcAMqCP,orderA,1,knochen,4.64,middle,m,6.453114305270363,6,original CLT items
2047,17,apple,apple,target,upper-left,2AcAMqCP,orderA,1,apfel,2.71,low,m,6.453114305270363,6,original CLT items
1827,18,fish,fish,target,lower-left,2AcAMqCP,orderA,1,fisch,2.76,low,m,6.453114305270363,6,original CLT items
2680,19,ant,ant,target,upper-right,2AcAMqCP,orderA,1,ameise,4.6,middle,m,6.453114305270363,6,original CLT items
1742,20,belt,belt,target,lower-right,2AcAMqCP,orderA,1,gürtel,4.11,middle,m,6.453114305270363,6,original CLT items
2838,21,fryingpan,fryingpan,target,upper-left,2AcAMqCP,orderA,1,pfanne,4.16,middle,m,6.453114305270363,6,new items
2913,22,zebra,zebra,target,upper-right,2AcAMqCP,orderA,1,zebra,3.65,middle,m,6.453114305270363,6,original CLT items
4356,23,needle,needle,target,upper-left,2AcAMqCP,orderA,1,nadel,4.22,middle,m,6.453114305270363,6,original CLT items
2883,24,bicycle,bicycle,target,upper-right,2AcAMqCP,orderA,1,fahrrad,3.8,middle,m,6.453114305270363,6,original CLT items
2991,25,ladder,ladder,target,upper-right,2AcAMqCP,orderA,1,leiter,4.47,middle,m,6.453114305270363,6,original CLT items
2089,26,battery,battery,target,lower-right,2AcAMqCP,orderA,1,batterie,5.94,middle,m,6.453114305270363,6,original CLT items
2938,27,elk,elk,target,upper-left,2AcAMqCP,orderA,1,elch,6.28,high,m,6.453114305270363,6,new items
1980,28,choir,orchestra,dist1,lower-right,2AcAMqCP,orderA,0,chor,7.19,high,m,6.453114305270363,6,new items
1604,29,kangaroo,kangaroo,target,lower-left,2AcAMqCP,orderA,1,känguru,5.89,middle,m,6.453114305270363,6,original CLT items
2170,30,ventilator,ventilator,target,upper-right,2AcAMqCP,orderA,1,ventilator,6.59,high,m,6.453114305270363,6,new items
6628,31,arugula,brusselsprouts,dist1,lower-left,2AcAMqCP,orderA,0,rucola,6.18,high,m,6.453114305270363,6,new items
2641,32,flag,flag,target,lower-right,2AcAMqCP,orderA,1,flagge,5.86,middle,m,6.453114305270363,6,original CLT items
1694,33,giraffe,giraffe,target,upper-left,2AcAMqCP,orderA,1,giraffe,3.79,middle,m,6.453114305270363,6,original CLT items
3954,34,palmtree,palmtree,target,lower-left,2AcAMqCP,orderA,1,palme,6.57,high,m,6.453114305270363,6,new items
2773,35,pineapple,pineapple,target,lower-right,2AcAMqCP,orderA,1,ananas,4.1,middle,m,6.453114305270363,6,original CLT items
1830,36,ocean,ocean,target,upper-left,2AcAMqCP,orderA,1,ozean,6.46,high,m,6.453114305270363,6,new items
1748,37,gazelle,gazelle,target,lower-right,2AcAMqCP,orderA,1,gazelle,6.31,high,m,6.453114305270363,6,new items
2222,38,ruler,ruler,target,lower-left,2AcAMqCP,orderA,1,lineal,4.9,middle,m,6.453114305270363,6,original CLT items
3523,39,badger,badger,target,lower-left,2AcAMqCP,orderA,1,dachs,6.17,high,m,6.453114305270363,6,new items
3255,40,chanterelle,chanterelle,target,upper-left,2AcAMqCP,orderA,1,pfifferling,7.13,high,m,6.453114305270363,6,new items
6118,41,ruin,ruin,target,lower-right,2AcAMqCP,orderA,1,ruine,6.21,high,m,6.453114305270363,6,new items
2009,42,labyrinth,labyrinth,target,lower-left,2AcAMqCP,orderA,1,labyrinth,6.63,high,m,6.453114305270363,6,new items
1996,43,mushroom,mushroom,target,lower-right,2AcAMqCP,orderA,1,pilz,3.67,middle,m,6.453114305270363,6,original CLT items
15232,44,orchid,orchid,target,lower-left,2AcAMqCP,orderA,1,orchidee,9.76,high,m,6.453114305270363,6,new items
4303,45,zucchini,zucchini,target,upper-right,2AcAMqCP,orderA,1,zucchini,5.95,middle,m,6.453114305270363,6,new items
5841,46,kayak,kayak,target,upper-left,2AcAMqCP,orderA,1,kajak,8.82,high,m,6.453114305270363,6,new items
9846,47,lobster,lobster,target,upper-right,2AcAMqCP,orderA,1,hummer,8,high,m,6.453114305270363,6,new items
9669,48,jaguar,panther,dist1,lower-left,2AcAMqCP,orderA,0,jaguar,7.64,high,m,6.453114305270363,6,new items
4995,49,carnation,violets,dist1,lower-right,2AcAMqCP,orderA,0,nelke,7.82,high,m,6.453114305270363,6,new items
5449,50,satellite,satellite,target,upper-left,2AcAMqCP,orderA,1,satellit,8.94,high,m,6.453114305270363,6,new items
2671,51,flounder,flounder,target,lower-right,2AcAMqCP,orderA,1,flunder,6.95,high,m,6.453114305270363,6,new items
5385,52,cello,cello,target,lower-left,2AcAMqCP,orderA,1,cello,8.67,high,m,6.453114305270363,6,new items
21428,1,door,door,target,lower-left,2gPQVt5g,orderB,1,tür,3.12,low,f,6.469541409993155,6,original CLT items
6134,2,stairs,stairs,target,lower-right,2gPQVt5g,orderB,1,treppe,3.25,low,f,6.469541409993155,6,original CLT items
5102,3,eye,eye,target,upper-left,2gPQVt5g,orderB,1,auge,2.69,low,f,6.469541409993155,6,original CLT items
7607,4,desk,desk,target,lower-left,2gPQVt5g,orderB,1,schreibtisch,3.2,low,f,6.469541409993155,6,original CLT items
3801,5,star,star,target,upper-left,2gPQVt5g,orderB,1,stern,3.29,low,f,6.469541409993155,6,original CLT items
3905,6,squirrel,squirrel,target,lower-left,2gPQVt5g,orderB,1,eichhörnchen,2.6,low,f,6.469541409993155,6,original CLT items
4977,7,cap,cap,target,upper-right,2gPQVt5g,orderB,1,mütze,1.95,low,f,6.469541409993155,6,original CLT items
3675,8,telephone,telephone,target,upper-right,2gPQVt5g,orderB,1,telefon,3.53,middle,f,6.469541409993155,6,original CLT items
4419,9,strawberry,strawberry,target,upper-left,2gPQVt5g,orderB,1,erdbeere,3.47,low,f,6.469541409993155,6,original CLT items
3121,10,scissors,scissors,target,upper-right,2gPQVt5g,orderB,1,schere,3.38,low,f,6.469541409993155,6,original CLT items
4480,11,bone,bone,target,lower-right,2gPQVt5g,orderB,1,knochen,4.64,middle,f,6.469541409993155,6,original CLT items
2974,12,paintbrush,paintbrush,target,lower-left,2gPQVt5g,orderB,1,pinsel,3.43,low,f,6.469541409993155,6,original CLT items
3790,13,fryingpan,fryingpan,target,upper-left,2gPQVt5g,orderB,1,pfanne,4.16,middle,f,6.469541409993155,6,new items
2800,14,carrot,carrot,target,lower-right,2gPQVt5g,orderB,1,möhre,3.36,low,f,6.469541409993155,6,original CLT items
2458,15,plane,plane,target,lower-left,2gPQVt5g,orderB,1,flugzeug,3.24,low,f,6.469541409993155,6,new items
3411,16,tiger,tiger,target,upper-right,2gPQVt5g,orderB,1,tiger,3.88,middle,f,6.469541409993155,6,original CLT items
3720,17,snake,snake,target,upper-left,2gPQVt5g,orderB,1,schlange,2,low,f,6.469541409993155,6,original CLT items
3305,18,apple,apple,target,upper-left,2gPQVt5g,orderB,1,apfel,2.71,low,f,6.469541409993155,6,original CLT items
4317,19,battery,battery,target,lower-right,2gPQVt5g,orderB,1,batterie,5.94,middle,f,6.469541409993155,6,original CLT items
6086,20,flag,flag,target,lower-right,2gPQVt5g,orderB,1,flagge,5.86,middle,f,6.469541409993155,6,original CLT items
7797,21,ladder,ladder,target,upper-right,2gPQVt5g,orderB,1,leiter,4.47,middle,f,6.469541409993155,6,original CLT items
4490,22,fish,fish,target,lower-left,2gPQVt5g,orderB,1,fisch,2.76,low,f,6.469541409993155,6,original CLT items
4874,23,giraffe,giraffe,target,upper-left,2gPQVt5g,orderB,1,giraffe,3.79,middle,f,6.469541409993155,6,original CLT items
5657,24,ant,ant,target,upper-right,2gPQVt5g,orderB,1,ameise,4.6,middle,f,6.469541409993155,6,original CLT items
5012,25,bicycle,bicycle,target,upper-right,2gPQVt5g,orderB,1,fahrrad,3.8,middle,f,6.469541409993155,6,original CLT items
18688,26,ruin,ruin,target,lower-right,2gPQVt5g,orderB,1,ruine,6.21,high,f,6.469541409993155,6,new items
22683,27,choir,orchestra,dist1,lower-right,2gPQVt5g,orderB,0,chor,7.19,high,f,6.469541409993155,6,new items
4422,28,pineapple,pineapple,target,lower-right,2gPQVt5g,orderB,1,ananas,4.1,middle,f,6.469541409993155,6,original CLT items
5496,29,zebra,zebra,target,upper-right,2gPQVt5g,orderB,1,zebra,3.65,middle,f,6.469541409993155,6,original CLT items
2950,30,belt,belt,target,lower-right,2gPQVt5g,orderB,1,gürtel,4.11,middle,f,6.469541409993155,6,original CLT items
3341,31,mushroom,mushroom,target,lower-right,2gPQVt5g,orderB,1,pilz,3.67,middle,f,6.469541409993155,6,original CLT items
3806,32,elk,elk,target,upper-left,2gPQVt5g,orderB,1,elch,6.28,high,f,6.469541409993155,6,new items
4484,33,needle,needle,target,upper-left,2gPQVt5g,orderB,1,nadel,4.22,middle,f,6.469541409993155,6,original CLT items
35634,34,arugula,arugula,target,lower-right,2gPQVt5g,orderB,1,rucola,6.18,high,f,6.469541409993155,6,new items
4094,35,palmtree,palmtree,target,lower-left,2gPQVt5g,orderB,1,palme,6.57,high,f,6.469541409993155,6,new items
3141,36,kangaroo,kangaroo,target,lower-left,2gPQVt5g,orderB,1,känguru,5.89,middle,f,6.469541409993155,6,original CLT items
33494,37,gazelle,gazelle,target,lower-right,2gPQVt5g,orderB,1,gazelle,6.31,high,f,6.469541409993155,6,new items
2865,38,badger,raccoon,dist1,lower-right,2gPQVt5g,orderB,0,dachs,6.17,high,f,6.469541409993155,6,new items
6401,39,chanterelle,chanterelle,target,upper-left,2gPQVt5g,orderB,1,pfifferling,7.13,high,f,6.469541409993155,6,new items
11025,40,orchid,orchid,target,lower-left,2gPQVt5g,orderB,1,orchidee,9.76,high,f,6.469541409993155,6,new items
15874,41,carnation,carnation,target,upper-right,2gPQVt5g,orderB,1,nelke,7.82,high,f,6.469541409993155,6,new items
4274,42,ventilator,ventilator,target,upper-right,2gPQVt5g,orderB,1,ventilator,6.59,high,f,6.469541409993155,6,new items
6566,43,labyrinth,labyrinth,target,lower-left,2gPQVt5g,orderB,1,labyrinth,6.63,high,f,6.469541409993155,6,new items
16576,44,ocean,ocean,target,upper-left,2gPQVt5g,orderB,1,ozean,6.46,high,f,6.469541409993155,6,new items
12719,45,lobster,lobster,target,upper-right,2gPQVt5g,orderB,1,hummer,8,high,f,6.469541409993155,6,new items
4340,46,cello,harp,dist1,lower-right,2gPQVt5g,orderB,0,cello,8.67,high,f,6.469541409993155,6,new items
10095,47,kayak,kayak,target,upper-left,2gPQVt5g,orderB,1,kajak,8.82,high,f,6.469541409993155,6,new items
5337,48,ruler,ruler,target,lower-left,2gPQVt5g,orderB,1,lineal,4.9,middle,f,6.469541409993155,6,original CLT items
40338,49,jaguar,jaguar,target,lower-right,2gPQVt5g,orderB,1,jaguar,7.64,high,f,6.469541409993155,6,new items
36763,50,flounder,elderberry,dist2,upper-left,2gPQVt5g,orderB,0,flunder,6.95,high,f,6.469541409993155,6,new items
9332,51,satellite,meteorid,dist2,lower-right,2gPQVt5g,orderB,0,satellit,8.94,high,f,6.469541409993155,6,new items
14778,52,zucchini,zucchini,target,upper-right,2gPQVt5g,orderB,1,zucchini,5.95,middle,f,6.469541409993155,6,new items
5106,1,squirrel,squirrel,target,lower-left,2qBznRbX,orderA,1,eichhörnchen,2.6,low,m,7.84394250513347,7,original CLT items
4281,2,cap,cap,target,upper-right,2qBznRbX,orderA,1,mütze,1.95,low,m,7.84394250513347,7,original CLT items
3960,3,door,door,target,lower-left,2qBznRbX,orderA,1,tür,3.12,low,m,7.84394250513347,7,original CLT items
4114,4,stairs,stairs,target,lower-right,2qBznRbX,orderA,1,treppe,3.25,low,m,7.84394250513347,7,original CLT items
4763,5,desk,desk,target,lower-left,2qBznRbX,orderA,1,schreibtisch,3.2,low,m,7.84394250513347,7,original CLT items
3136,6,strawberry,strawberry,target,upper-left,2qBznRbX,orderA,1,erdbeere,3.47,low,m,7.84394250513347,7,original CLT items
2834,7,eye,eye,target,upper-left,2qBznRbX,orderA,1,auge,2.69,low,m,7.84394250513347,7,original CLT items
3024,8,plane,plane,target,lower-left,2qBznRbX,orderA,1,flugzeug,3.24,low,m,7.84394250513347,7,new items
2996,9,paintbrush,paintbrush,target,lower-left,2qBznRbX,orderA,1,pinsel,3.43,low,m,7.84394250513347,7,original CLT items
2809,10,telephone,telephone,target,upper-right,2qBznRbX,orderA,1,telefon,3.53,middle,m,7.84394250513347,7,original CLT items
2704,11,snake,snake,target,upper-left,2qBznRbX,orderA,1,schlange,2,low,m,7.84394250513347,7,original CLT items
3103,12,carrot,carrot,target,lower-right,2qBznRbX,orderA,1,möhre,3.36,low,m,7.84394250513347,7,original CLT items
2560,13,star,star,target,upper-left,2qBznRbX,orderA,1,stern,3.29,low,m,7.84394250513347,7,original CLT items
2782,14,scissors,scissors,target,upper-right,2qBznRbX,orderA,1,schere,3.38,low,m,7.84394250513347,7,original CLT items
5341,15,tiger,tiger,target,upper-right,2qBznRbX,orderA,1,tiger,3.88,middle,m,7.84394250513347,7,original CLT items
4810,16,bone,bone,target,lower-right,2qBznRbX,orderA,1,knochen,4.64,middle,m,7.84394250513347,7,original CLT items
3539,17,apple,apple,target,upper-left,2qBznRbX,orderA,1,apfel,2.71,low,m,7.84394250513347,7,original CLT items
2922,18,fish,fish,target,lower-left,2qBznRbX,orderA,1,fisch,2.76,low,m,7.84394250513347,7,original CLT items
2621,19,ant,ant,target,upper-right,2qBznRbX,orderA,1,ameise,4.6,middle,m,7.84394250513347,7,original CLT items
4878,20,belt,belt,target,lower-right,2qBznRbX,orderA,1,gürtel,4.11,middle,m,7.84394250513347,7,original CLT items
4471,21,fryingpan,fryingpan,target,upper-left,2qBznRbX,orderA,1,pfanne,4.16,middle,m,7.84394250513347,7,new items
3258,22,zebra,zebra,target,upper-right,2qBznRbX,orderA,1,zebra,3.65,middle,m,7.84394250513347,7,original CLT items
3906,23,needle,needle,target,upper-left,2qBznRbX,orderA,1,nadel,4.22,middle,m,7.84394250513347,7,original CLT items
3902,24,bicycle,bicycle,target,upper-right,2qBznRbX,orderA,1,fahrrad,3.8,middle,m,7.84394250513347,7,original CLT items
3981,25,ladder,ladder,target,upper-right,2qBznRbX,orderA,1,leiter,4.47,middle,m,7.84394250513347,7,original CLT items
3918,26,battery,battery,target,lower-right,2qBznRbX,orderA,1,batterie,5.94,middle,m,7.84394250513347,7,original CLT items
6086,27,elk,elk,target,upper-left,2qBznRbX,orderA,1,elch,6.28,high,m,7.84394250513347,7,new items
3082,28,choir,choir,target,upper-right,2qBznRbX,orderA,1,chor,7.19,high,m,7.84394250513347,7,new items
2804,29,kangaroo,kangaroo,target,lower-left,2qBznRbX,orderA,1,känguru,5.89,middle,m,7.84394250513347,7,original CLT items
6916,30,ventilator,ventilator,target,upper-right,2qBznRbX,orderA,1,ventilator,6.59,high,m,7.84394250513347,7,new items
5542,31,arugula,arugula,target,lower-right,2qBznRbX,orderA,1,rucola,6.18,high,m,7.84394250513347,7,new items
3776,32,flag,flag,target,lower-right,2qBznRbX,orderA,1,flagge,5.86,middle,m,7.84394250513347,7,original CLT items
5880,33,giraffe,giraffe,target,upper-left,2qBznRbX,orderA,1,giraffe,3.79,middle,m,7.84394250513347,7,original CLT items
3570,34,palmtree,palmtree,target,lower-left,2qBznRbX,orderA,1,palme,6.57,high,m,7.84394250513347,7,new items
4771,35,pineapple,pineapple,target,lower-right,2qBznRbX,orderA,1,ananas,4.1,middle,m,7.84394250513347,7,original CLT items
2988,36,ocean,ocean,target,upper-left,2qBznRbX,orderA,1,ozean,6.46,high,m,7.84394250513347,7,new items
7056,37,gazelle,gazelle,target,lower-right,2qBznRbX,orderA,1,gazelle,6.31,high,m,7.84394250513347,7,new items
3076,38,ruler,ruler,target,lower-left,2qBznRbX,orderA,1,lineal,4.9,middle,m,7.84394250513347,7,original CLT items
2805,39,badger,badger,target,lower-left,2qBznRbX,orderA,1,dachs,6.17,high,m,7.84394250513347,7,new items
3778,40,chanterelle,chanterelle,target,upper-left,2qBznRbX,orderA,1,pfifferling,7.13,high,m,7.84394250513347,7,new items
6732,41,ruin,ruin,target,lower-right,2qBznRbX,orderA,1,ruine,6.21,high,m,7.84394250513347,7,new items
6316,42,labyrinth,labyrinth,target,lower-left,2qBznRbX,orderA,1,labyrinth,6.63,high,m,7.84394250513347,7,new items
5805,43,mushroom,mushroom,target,lower-right,2qBznRbX,orderA,1,pilz,3.67,middle,m,7.84394250513347,7,original CLT items
22911,44,orchid,shrub,dist1,upper-left,2qBznRbX,orderA,0,orchidee,9.76,high,m,7.84394250513347,7,new items
4538,45,zucchini,zucchini,target,upper-right,2qBznRbX,orderA,1,zucchini,5.95,middle,m,7.84394250513347,7,new items
4040,46,kayak,kayak,target,upper-left,2qBznRbX,orderA,1,kajak,8.82,high,m,7.84394250513347,7,new items
3061,47,lobster,lobster,target,upper-right,2qBznRbX,orderA,1,hummer,8,high,m,7.84394250513347,7,new items
9944,48,jaguar,jaguar,target,lower-right,2qBznRbX,orderA,1,jaguar,7.64,high,m,7.84394250513347,7,new items
5517,49,carnation,carnation,target,upper-right,2qBznRbX,orderA,1,nelke,7.82,high,m,7.84394250513347,7,new items
8578,50,satellite,satellite,target,upper-left,2qBznRbX,orderA,1,satellit,8.94,high,m,7.84394250513347,7,new items
4416,51,flounder,flounder,target,lower-right,2qBznRbX,orderA,1,flunder,6.95,high,m,7.84394250513347,7,new items
4161,52,cello,cello,target,lower-left,2qBznRbX,orderA,1,cello,8.67,high,m,7.84394250513347,7,new items
5111,1,squirrel,squirrel,target,lower-left,2WQeN9gW,orderA,1,eichhörnchen,2.6,low,f,7.737166324435318,7,original CLT items
4663,2,cap,cap,target,upper-right,2WQeN9gW,orderA,1,mütze,1.95,low,f,7.737166324435318,7,original CLT items
4684,3,door,door,target,lower-left,2WQeN9gW,orderA,1,tür,3.12,low,f,7.737166324435318,7,original CLT items
4486,4,stairs,stairs,target,lower-right,2WQeN9gW,orderA,1,treppe,3.25,low,f,7.737166324435318,7,original CLT items
4405,5,desk,desk,target,lower-left,2WQeN9gW,orderA,1,schreibtisch,3.2,low,f,7.737166324435318,7,original CLT items
4893,6,strawberry,strawberry,target,upper-left,2WQeN9gW,orderA,1,erdbeere,3.47,low,f,7.737166324435318,7,original CLT items
3920,7,eye,eye,target,upper-left,2WQeN9gW,orderA,1,auge,2.69,low,f,7.737166324435318,7,original CLT items
3453,8,plane,plane,target,lower-left,2WQeN9gW,orderA,1,flugzeug,3.24,low,f,7.737166324435318,7,new items
3106,9,paintbrush,paintbrush,target,lower-left,2WQeN9gW,orderA,1,pinsel,3.43,low,f,7.737166324435318,7,original CLT items
2942,10,telephone,telephone,target,upper-right,2WQeN9gW,orderA,1,telefon,3.53,middle,f,7.737166324435318,7,original CLT items
2760,11,snake,snake,target,upper-left,2WQeN9gW,orderA,1,schlange,2,low,f,7.737166324435318,7,original CLT items
3849,12,carrot,carrot,target,lower-right,2WQeN9gW,orderA,1,möhre,3.36,low,f,7.737166324435318,7,original CLT items
2981,13,star,star,target,upper-left,2WQeN9gW,orderA,1,stern,3.29,low,f,7.737166324435318,7,original CLT items
3043,14,scissors,scissors,target,upper-right,2WQeN9gW,orderA,1,schere,3.38,low,f,7.737166324435318,7,original CLT items
2639,15,tiger,tiger,target,upper-right,2WQeN9gW,orderA,1,tiger,3.88,middle,f,7.737166324435318,7,original CLT items
3256,16,bone,bone,target,lower-right,2WQeN9gW,orderA,1,knochen,4.64,middle,f,7.737166324435318,7,original CLT items
3314,17,apple,apple,target,upper-left,2WQeN9gW,orderA,1,apfel,2.71,low,f,7.737166324435318,7,original CLT items
2575,18,fish,fish,target,lower-left,2WQeN9gW,orderA,1,fisch,2.76,low,f,7.737166324435318,7,original CLT items
2350,19,ant,ant,target,upper-right,2WQeN9gW,orderA,1,ameise,4.6,middle,f,7.737166324435318,7,original CLT items
2885,20,belt,belt,target,lower-right,2WQeN9gW,orderA,1,gürtel,4.11,middle,f,7.737166324435318,7,original CLT items
4248,21,fryingpan,fryingpan,target,upper-left,2WQeN9gW,orderA,1,pfanne,4.16,middle,f,7.737166324435318,7,new items
3629,22,zebra,zebra,target,upper-right,2WQeN9gW,orderA,1,zebra,3.65,middle,f,7.737166324435318,7,original CLT items
3988,23,needle,needle,target,upper-left,2WQeN9gW,orderA,1,nadel,4.22,middle,f,7.737166324435318,7,original CLT items
3859,24,bicycle,bicycle,target,upper-right,2WQeN9gW,orderA,1,fahrrad,3.8,middle,f,7.737166324435318,7,original CLT items
4774,25,ladder,ladder,target,upper-right,2WQeN9gW,orderA,1,leiter,4.47,middle,f,7.737166324435318,7,original CLT items
3586,26,battery,battery,target,lower-right,2WQeN9gW,orderA,1,batterie,5.94,middle,f,7.737166324435318,7,original CLT items
3371,27,elk,elk,target,upper-left,2WQeN9gW,orderA,1,elch,6.28,high,f,7.737166324435318,7,new items
2964,28,choir,choir,target,upper-right,2WQeN9gW,orderA,1,chor,7.19,high,f,7.737166324435318,7,new items
2958,29,kangaroo,kangaroo,target,lower-left,2WQeN9gW,orderA,1,känguru,5.89,middle,f,7.737166324435318,7,original CLT items
3116,30,ventilator,ventilator,target,upper-right,2WQeN9gW,orderA,1,ventilator,6.59,high,f,7.737166324435318,7,new items
5323,31,arugula,brusselsprouts,dist1,lower-left,2WQeN9gW,orderA,0,rucola,6.18,high,f,7.737166324435318,7,new items
3385,32,flag,flag,target,lower-right,2WQeN9gW,orderA,1,flagge,5.86,middle,f,7.737166324435318,7,original CLT items
4623,33,giraffe,giraffe,target,upper-left,2WQeN9gW,orderA,1,giraffe,3.79,middle,f,7.737166324435318,7,original CLT items
3353,34,palmtree,palmtree,target,lower-left,2WQeN9gW,orderA,1,palme,6.57,high,f,7.737166324435318,7,new items
2745,35,pineapple,pineapple,target,lower-right,2WQeN9gW,orderA,1,ananas,4.1,middle,f,7.737166324435318,7,original CLT items
3830,36,ocean,ocean,target,upper-left,2WQeN9gW,orderA,1,ozean,6.46,high,f,7.737166324435318,7,new items
6087,37,gazelle,gazelle,target,lower-right,2WQeN9gW,orderA,1,gazelle,6.31,high,f,7.737166324435318,7,new items
2808,38,ruler,ruler,target,lower-left,2WQeN9gW,orderA,1,lineal,4.9,middle,f,7.737166324435318,7,original CLT items
2691,39,badger,badger,target,lower-left,2WQeN9gW,orderA,1,dachs,6.17,high,f,7.737166324435318,7,new items
3511,40,chanterelle,chanterelle,target,upper-left,2WQeN9gW,orderA,1,pfifferling,7.13,high,f,7.737166324435318,7,new items
4334,41,ruin,ruin,target,lower-right,2WQeN9gW,orderA,1,ruine,6.21,high,f,7.737166324435318,7,new items
4580,42,labyrinth,labyrinth,target,lower-left,2WQeN9gW,orderA,1,labyrinth,6.63,high,f,7.737166324435318,7,new items
3063,43,mushroom,mushroom,target,lower-right,2WQeN9gW,orderA,1,pilz,3.67,middle,f,7.737166324435318,7,original CLT items
7686,44,orchid,orchid,target,lower-left,2WQeN9gW,orderA,1,orchidee,9.76,high,f,7.737166324435318,7,new items
4177,45,zucchini,zucchini,target,upper-right,2WQeN9gW,orderA,1,zucchini,5.95,middle,f,7.737166324435318,7,new items
3130,46,kayak,kayak,target,upper-left,2WQeN9gW,orderA,1,kajak,8.82,high,f,7.737166324435318,7,new items
2762,47,lobster,lobster,target,upper-right,2WQeN9gW,orderA,1,hummer,8,high,f,7.737166324435318,7,new items
5001,48,jaguar,panther,dist1,lower-left,2WQeN9gW,orderA,0,jaguar,7.64,high,f,7.737166324435318,7,new items
9047,49,carnation,carnation,target,upper-right,2WQeN9gW,orderA,1,nelke,7.82,high,f,7.737166324435318,7,new items
24262,50,satellite,satellite,target,upper-left,2WQeN9gW,orderA,1,satellit,8.94,high,f,7.737166324435318,7,new items
15694,51,flounder,elderberry,dist2,upper-left,2WQeN9gW,orderA,0,flunder,6.95,high,f,7.737166324435318,7,new items
4677,52,cello,cello,target,lower-left,2WQeN9gW,orderA,1,cello,8.67,high,f,7.737166324435318,7,new items
4946,1,door,door,target,lower-left,35zXz9Fv,orderB,1,tür,3.12,low,f,6.937713894592744,6,original CLT items
7132,2,stairs,stairs,target,lower-right,35zXz9Fv,orderB,1,treppe,3.25,low,f,6.937713894592744,6,original CLT items
4937,3,eye,eye,target,upper-left,35zXz9Fv,orderB,1,auge,2.69,low,f,6.937713894592744,6,original CLT items
3318,4,desk,desk,target,lower-left,35zXz9Fv,orderB,1,schreibtisch,3.2,low,f,6.937713894592744,6,original CLT items
2532,5,star,star,target,upper-left,35zXz9Fv,orderB,1,stern,3.29,low,f,6.937713894592744,6,original CLT items
2824,6,squirrel,squirrel,target,lower-left,35zXz9Fv,orderB,1,eichhörnchen,2.6,low,f,6.937713894592744,6,original CLT items
2375,7,cap,cap,target,upper-right,35zXz9Fv,orderB,1,mütze,1.95,low,f,6.937713894592744,6,original CLT items
2027,8,telephone,telephone,target,upper-right,35zXz9Fv,orderB,1,telefon,3.53,middle,f,6.937713894592744,6,original CLT items
1776,9,strawberry,strawberry,target,upper-left,35zXz9Fv,orderB,1,erdbeere,3.47,low,f,6.937713894592744,6,original CLT items
1912,10,scissors,scissors,target,upper-right,35zXz9Fv,orderB,1,schere,3.38,low,f,6.937713894592744,6,original CLT items
1707,11,bone,bone,target,lower-right,35zXz9Fv,orderB,1,knochen,4.64,middle,f,6.937713894592744,6,original CLT items
1597,12,paintbrush,paintbrush,target,lower-left,35zXz9Fv,orderB,1,pinsel,3.43,low,f,6.937713894592744,6,original CLT items
2306,13,fryingpan,fryingpan,target,upper-left,35zXz9Fv,orderB,1,pfanne,4.16,middle,f,6.937713894592744,6,new items
1702,14,carrot,carrot,target,lower-right,35zXz9Fv,orderB,1,möhre,3.36,low,f,6.937713894592744,6,original CLT items
2382,15,plane,plane,target,lower-left,35zXz9Fv,orderB,1,flugzeug,3.24,low,f,6.937713894592744,6,new items
1642,16,tiger,tiger,target,upper-right,35zXz9Fv,orderB,1,tiger,3.88,middle,f,6.937713894592744,6,original CLT items
2804,17,snake,snake,target,upper-left,35zXz9Fv,orderB,1,schlange,2,low,f,6.937713894592744,6,original CLT items
1592,18,apple,apple,target,upper-left,35zXz9Fv,orderB,1,apfel,2.71,low,f,6.937713894592744,6,original CLT items
2271,19,battery,battery,target,lower-right,35zXz9Fv,orderB,1,batterie,5.94,middle,f,6.937713894592744,6,original CLT items
2198,20,flag,flag,target,lower-right,35zXz9Fv,orderB,1,flagge,5.86,middle,f,6.937713894592744,6,original CLT items
5109,21,ladder,ladder,target,upper-right,35zXz9Fv,orderB,1,leiter,4.47,middle,f,6.937713894592744,6,original CLT items
2406,22,fish,fish,target,lower-left,35zXz9Fv,orderB,1,fisch,2.76,low,f,6.937713894592744,6,original CLT items
2701,23,giraffe,giraffe,target,upper-left,35zXz9Fv,orderB,1,giraffe,3.79,middle,f,6.937713894592744,6,original CLT items
2844,24,ant,ant,target,upper-right,35zXz9Fv,orderB,1,ameise,4.6,middle,f,6.937713894592744,6,original CLT items
3582,25,bicycle,bicycle,target,upper-right,35zXz9Fv,orderB,1,fahrrad,3.8,middle,f,6.937713894592744,6,original CLT items
2258,26,ruin,ruin,target,lower-right,35zXz9Fv,orderB,1,ruine,6.21,high,f,6.937713894592744,6,new items
16100,27,choir,choir,target,upper-right,35zXz9Fv,orderB,1,chor,7.19,high,f,6.937713894592744,6,new items
1377,28,pineapple,pineapple,target,lower-right,35zXz9Fv,orderB,1,ananas,4.1,middle,f,6.937713894592744,6,original CLT items
2516,29,zebra,zebra,target,upper-right,35zXz9Fv,orderB,1,zebra,3.65,middle,f,6.937713894592744,6,original CLT items
1844,30,belt,belt,target,lower-right,35zXz9Fv,orderB,1,gürtel,4.11,middle,f,6.937713894592744,6,original CLT items
3467,31,mushroom,mushroom,target,lower-right,35zXz9Fv,orderB,1,pilz,3.67,middle,f,6.937713894592744,6,original CLT items
1668,32,elk,elk,target,upper-left,35zXz9Fv,orderB,1,elch,6.28,high,f,6.937713894592744,6,new items
1924,33,needle,needle,target,upper-left,35zXz9Fv,orderB,1,nadel,4.22,middle,f,6.937713894592744,6,original CLT items
14939,34,arugula,arugula,target,lower-right,35zXz9Fv,orderB,1,rucola,6.18,high,f,6.937713894592744,6,new items
1696,35,palmtree,palmtree,target,lower-left,35zXz9Fv,orderB,1,palme,6.57,high,f,6.937713894592744,6,new items
2775,36,kangaroo,kangaroo,target,lower-left,35zXz9Fv,orderB,1,känguru,5.89,middle,f,6.937713894592744,6,original CLT items
4435,37,gazelle,gazelle,target,lower-right,35zXz9Fv,orderB,1,gazelle,6.31,high,f,6.937713894592744,6,new items
2425,38,badger,badger,target,lower-left,35zXz9Fv,orderB,1,dachs,6.17,high,f,6.937713894592744,6,new items
3666,39,chanterelle,chanterelle,target,upper-left,35zXz9Fv,orderB,1,pfifferling,7.13,high,f,6.937713894592744,6,new items
2515,40,orchid,orchid,target,lower-left,35zXz9Fv,orderB,1,orchidee,9.76,high,f,6.937713894592744,6,new items
3559,41,carnation,carnation,target,upper-right,35zXz9Fv,orderB,1,nelke,7.82,high,f,6.937713894592744,6,new items
4304,42,ventilator,ventilator,target,upper-right,35zXz9Fv,orderB,1,ventilator,6.59,high,f,6.937713894592744,6,new items
2567,43,labyrinth,labyrinth,target,lower-left,35zXz9Fv,orderB,1,labyrinth,6.63,high,f,6.937713894592744,6,new items
3017,44,ocean,ocean,target,upper-left,35zXz9Fv,orderB,1,ozean,6.46,high,f,6.937713894592744,6,new items
4063,45,lobster,lobster,target,upper-right,35zXz9Fv,orderB,1,hummer,8,high,f,6.937713894592744,6,new items
5239,46,cello,cello,target,lower-left,35zXz9Fv,orderB,1,cello,8.67,high,f,6.937713894592744,6,new items
7480,47,kayak,kayak,target,upper-left,35zXz9Fv,orderB,1,kajak,8.82,high,f,6.937713894592744,6,new items
2170,48,ruler,ruler,target,lower-left,35zXz9Fv,orderB,1,lineal,4.9,middle,f,6.937713894592744,6,original CLT items
2583,49,jaguar,jaguar,target,lower-right,35zXz9Fv,orderB,1,jaguar,7.64,high,f,6.937713894592744,6,new items
11667,50,flounder,flounder,target,lower-right,35zXz9Fv,orderB,1,flunder,6.95,high,f,6.937713894592744,6,new items
2627,51,satellite,satellite,target,upper-left,35zXz9Fv,orderB,1,satellit,8.94,high,f,6.937713894592744,6,new items
3972,52,zucchini,zucchini,target,upper-right,35zXz9Fv,orderB,1,zucchini,5.95,middle,f,6.937713894592744,6,new items
6862,1,door,door,target,lower-left,39tVizn3,orderB,1,tür,3.12,low,m,3.578370978781656,3,original CLT items
3373,2,stairs,stairs,target,lower-right,39tVizn3,orderB,1,treppe,3.25,low,m,3.578370978781656,3,original CLT items
4999,3,eye,eye,target,upper-left,39tVizn3,orderB,1,auge,2.69,low,m,3.578370978781656,3,original CLT items
3404,4,desk,desk,target,lower-left,39tVizn3,orderB,1,schreibtisch,3.2,low,m,3.578370978781656,3,original CLT items
4207,5,star,star,target,upper-left,39tVizn3,orderB,1,stern,3.29,low,m,3.578370978781656,3,original CLT items
3734,6,squirrel,squirrel,target,lower-left,39tVizn3,orderB,1,eichhörnchen,2.6,low,m,3.578370978781656,3,original CLT items
2513,7,cap,cap,target,upper-right,39tVizn3,orderB,1,mütze,1.95,low,m,3.578370978781656,3,original CLT items
2452,8,telephone,telephone,target,upper-right,39tVizn3,orderB,1,telefon,3.53,middle,m,3.578370978781656,3,original CLT items
3048,9,strawberry,strawberry,target,upper-left,39tVizn3,orderB,1,erdbeere,3.47,low,m,3.578370978781656,3,original CLT items
2840,10,scissors,scissors,target,upper-right,39tVizn3,orderB,1,schere,3.38,low,m,3.578370978781656,3,original CLT items
2919,11,bone,bone,target,lower-right,39tVizn3,orderB,1,knochen,4.64,middle,m,3.578370978781656,3,original CLT items
3231,12,paintbrush,paintbrush,target,lower-left,39tVizn3,orderB,1,pinsel,3.43,low,m,3.578370978781656,3,original CLT items
11558,13,fryingpan,fryingpan,target,upper-left,39tVizn3,orderB,1,pfanne,4.16,middle,m,3.578370978781656,3,new items
4863,14,carrot,carrot,target,lower-right,39tVizn3,orderB,1,möhre,3.36,low,m,3.578370978781656,3,original CLT items
8333,15,plane,plane,target,lower-left,39tVizn3,orderB,1,flugzeug,3.24,low,m,3.578370978781656,3,new items
13327,16,tiger,tiger,target,upper-right,39tVizn3,orderB,1,tiger,3.88,middle,m,3.578370978781656,3,original CLT items
3039,17,snake,snake,target,upper-left,39tVizn3,orderB,1,schlange,2,low,m,3.578370978781656,3,original CLT items
3087,18,apple,apple,target,upper-left,39tVizn3,orderB,1,apfel,2.71,low,m,3.578370978781656,3,original CLT items
2669,19,battery,battery,target,lower-right,39tVizn3,orderB,1,batterie,5.94,middle,m,3.578370978781656,3,original CLT items
3584,20,flag,flag,target,lower-right,39tVizn3,orderB,1,flagge,5.86,middle,m,3.578370978781656,3,original CLT items
4575,21,ladder,ladder,target,upper-right,39tVizn3,orderB,1,leiter,4.47,middle,m,3.578370978781656,3,original CLT items
3146,22,fish,fish,target,lower-left,39tVizn3,orderB,1,fisch,2.76,low,m,3.578370978781656,3,original CLT items
3989,23,giraffe,giraffe,target,upper-left,39tVizn3,orderB,1,giraffe,3.79,middle,m,3.578370978781656,3,original CLT items
4639,24,ant,ant,target,upper-right,39tVizn3,orderB,1,ameise,4.6,middle,m,3.578370978781656,3,original CLT items
5807,25,bicycle,bicycle,target,upper-right,39tVizn3,orderB,1,fahrrad,3.8,middle,m,3.578370978781656,3,original CLT items
15053,26,ruin,ruin,target,lower-right,39tVizn3,orderB,1,ruine,6.21,high,m,3.578370978781656,3,new items
14320,27,choir,orchestra,dist1,lower-right,39tVizn3,orderB,0,chor,7.19,high,m,3.578370978781656,3,new items
4167,28,pineapple,pineapple,target,lower-right,39tVizn3,orderB,1,ananas,4.1,middle,m,3.578370978781656,3,original CLT items
2615,29,zebra,zebra,target,upper-right,39tVizn3,orderB,1,zebra,3.65,middle,m,3.578370978781656,3,original CLT items
2425,30,belt,belt,target,lower-right,39tVizn3,orderB,1,gürtel,4.11,middle,m,3.578370978781656,3,original CLT items
4761,31,mushroom,mushroom,target,lower-right,39tVizn3,orderB,1,pilz,3.67,middle,m,3.578370978781656,3,original CLT items
4775,32,elk,elk,target,upper-left,39tVizn3,orderB,1,elch,6.28,high,m,3.578370978781656,3,new items
5559,33,needle,needle,target,upper-left,39tVizn3,orderB,1,nadel,4.22,middle,m,3.578370978781656,3,original CLT items
14264,34,arugula,arugula,target,lower-right,39tVizn3,orderB,1,rucola,6.18,high,m,3.578370978781656,3,new items
14030,35,palmtree,drinkingstraws,dist2,lower-right,39tVizn3,orderB,0,palme,6.57,high,m,3.578370978781656,3,new items
2734,36,kangaroo,kangaroo,target,lower-left,39tVizn3,orderB,1,känguru,5.89,middle,m,3.578370978781656,3,original CLT items
3679,37,gazelle,gazelle,target,lower-right,39tVizn3,orderB,1,gazelle,6.31,high,m,3.578370978781656,3,new items
4768,38,badger,badger,target,lower-left,39tVizn3,orderB,1,dachs,6.17,high,m,3.578370978781656,3,new items
5766,39,chanterelle,chanterelle,target,upper-left,39tVizn3,orderB,1,pfifferling,7.13,high,m,3.578370978781656,3,new items
13336,40,orchid,shrub,dist1,upper-left,39tVizn3,orderB,0,orchidee,9.76,high,m,3.578370978781656,3,new items
7183,41,carnation,tents,dist2,lower-left,39tVizn3,orderB,0,nelke,7.82,high,m,3.578370978781656,3,new items
6423,42,ventilator,gardengate,dist2,lower-left,39tVizn3,orderB,0,ventilator,6.59,high,m,3.578370978781656,3,new items
5713,43,labyrinth,whirlwind,dist2,lower-right,39tVizn3,orderB,0,labyrinth,6.63,high,m,3.578370978781656,3,new items
4768,44,ocean,river,dist1,lower-left,39tVizn3,orderB,0,ozean,6.46,high,m,3.578370978781656,3,new items
6800,45,lobster,lobster,target,upper-right,39tVizn3,orderB,1,hummer,8,high,m,3.578370978781656,3,new items
4128,46,cello,marshmallow,dist2,upper-right,39tVizn3,orderB,0,cello,8.67,high,m,3.578370978781656,3,new items
4798,47,kayak,backpack,dist2,upper-right,39tVizn3,orderB,0,kajak,8.82,high,m,3.578370978781656,3,new items
21615,48,ruler,sunglasses,dist3,upper-right,39tVizn3,orderB,0,lineal,4.9,middle,m,3.578370978781656,3,original CLT items
7175,49,jaguar,jaguar,target,lower-right,39tVizn3,orderB,1,jaguar,7.64,high,m,3.578370978781656,3,new items
6055,50,flounder,flounder,target,lower-right,39tVizn3,orderB,1,flunder,6.95,high,m,3.578370978781656,3,new items
5505,51,satellite,satellite,target,upper-left,39tVizn3,orderB,1,satellit,8.94,high,m,3.578370978781656,3,new items
10996,52,zucchini,broccoli,dist1,lower-right,39tVizn3,orderB,0,zucchini,5.95,middle,m,3.578370978781656,3,new items
3943,1,door,door,target,lower-left,3aD3veUZ,orderB,1,tür,3.12,low,f,6.406570841889117,6,original CLT items
3730,2,stairs,stairs,target,lower-right,3aD3veUZ,orderB,1,treppe,3.25,low,f,6.406570841889117,6,original CLT items
4096,3,eye,eye,target,upper-left,3aD3veUZ,orderB,1,auge,2.69,low,f,6.406570841889117,6,original CLT items
3791,4,desk,desk,target,lower-left,3aD3veUZ,orderB,1,schreibtisch,3.2,low,f,6.406570841889117,6,original CLT items
2755,5,star,star,target,upper-left,3aD3veUZ,orderB,1,stern,3.29,low,f,6.406570841889117,6,original CLT items
2287,6,squirrel,squirrel,target,lower-left,3aD3veUZ,orderB,1,eichhörnchen,2.6,low,f,6.406570841889117,6,original CLT items
2650,7,cap,cap,target,upper-right,3aD3veUZ,orderB,1,mütze,1.95,low,f,6.406570841889117,6,original CLT items
2428,8,telephone,telephone,target,upper-right,3aD3veUZ,orderB,1,telefon,3.53,middle,f,6.406570841889117,6,original CLT items
2088,9,strawberry,strawberry,target,upper-left,3aD3veUZ,orderB,1,erdbeere,3.47,low,f,6.406570841889117,6,original CLT items
2212,10,scissors,scissors,target,upper-right,3aD3veUZ,orderB,1,schere,3.38,low,f,6.406570841889117,6,original CLT items
2016,11,bone,bone,target,lower-right,3aD3veUZ,orderB,1,knochen,4.64,middle,f,6.406570841889117,6,original CLT items
2167,12,paintbrush,paintbrush,target,lower-left,3aD3veUZ,orderB,1,pinsel,3.43,low,f,6.406570841889117,6,original CLT items
2081,13,fryingpan,fryingpan,target,upper-left,3aD3veUZ,orderB,1,pfanne,4.16,middle,f,6.406570841889117,6,new items
2047,14,carrot,carrot,target,lower-right,3aD3veUZ,orderB,1,möhre,3.36,low,f,6.406570841889117,6,original CLT items
1989,15,plane,plane,target,lower-left,3aD3veUZ,orderB,1,flugzeug,3.24,low,f,6.406570841889117,6,new items
2001,16,tiger,tiger,target,upper-right,3aD3veUZ,orderB,1,tiger,3.88,middle,f,6.406570841889117,6,original CLT items
2302,17,snake,snake,target,upper-left,3aD3veUZ,orderB,1,schlange,2,low,f,6.406570841889117,6,original CLT items
2445,18,apple,apple,target,upper-left,3aD3veUZ,orderB,1,apfel,2.71,low,f,6.406570841889117,6,original CLT items
2640,19,battery,battery,target,lower-right,3aD3veUZ,orderB,1,batterie,5.94,middle,f,6.406570841889117,6,original CLT items
2681,20,flag,flag,target,lower-right,3aD3veUZ,orderB,1,flagge,5.86,middle,f,6.406570841889117,6,original CLT items
4048,21,ladder,ladder,target,upper-right,3aD3veUZ,orderB,1,leiter,4.47,middle,f,6.406570841889117,6,original CLT items
2652,22,fish,fish,target,lower-left,3aD3veUZ,orderB,1,fisch,2.76,low,f,6.406570841889117,6,original CLT items
3184,23,giraffe,giraffe,target,upper-left,3aD3veUZ,orderB,1,giraffe,3.79,middle,f,6.406570841889117,6,original CLT items
3203,24,ant,ant,target,upper-right,3aD3veUZ,orderB,1,ameise,4.6,middle,f,6.406570841889117,6,original CLT items
3121,25,bicycle,bicycle,target,upper-right,3aD3veUZ,orderB,1,fahrrad,3.8,middle,f,6.406570841889117,6,original CLT items
11553,26,ruin,ruin,target,lower-right,3aD3veUZ,orderB,1,ruine,6.21,high,f,6.406570841889117,6,new items
2778,27,choir,orchestra,dist1,lower-right,3aD3veUZ,orderB,0,chor,7.19,high,f,6.406570841889117,6,new items
1855,28,pineapple,pineapple,target,lower-right,3aD3veUZ,orderB,1,ananas,4.1,middle,f,6.406570841889117,6,original CLT items
2666,29,zebra,zebra,target,upper-right,3aD3veUZ,orderB,1,zebra,3.65,middle,f,6.406570841889117,6,original CLT items
1917,30,belt,belt,target,lower-right,3aD3veUZ,orderB,1,gürtel,4.11,middle,f,6.406570841889117,6,original CLT items
2054,31,mushroom,mushroom,target,lower-right,3aD3veUZ,orderB,1,pilz,3.67,middle,f,6.406570841889117,6,original CLT items
4380,32,elk,elk,target,upper-left,3aD3veUZ,orderB,1,elch,6.28,high,f,6.406570841889117,6,new items
2661,33,needle,needle,target,upper-left,3aD3veUZ,orderB,1,nadel,4.22,middle,f,6.406570841889117,6,original CLT items
8741,34,arugula,brusselsprouts,dist1,lower-left,3aD3veUZ,orderB,0,rucola,6.18,high,f,6.406570841889117,6,new items
2638,35,palmtree,palmtree,target,lower-left,3aD3veUZ,orderB,1,palme,6.57,high,f,6.406570841889117,6,new items
1987,36,kangaroo,kangaroo,target,lower-left,3aD3veUZ,orderB,1,känguru,5.89,middle,f,6.406570841889117,6,original CLT items
2822,37,gazelle,gazelle,target,lower-right,3aD3veUZ,orderB,1,gazelle,6.31,high,f,6.406570841889117,6,new items
2479,38,badger,badger,target,lower-left,3aD3veUZ,orderB,1,dachs,6.17,high,f,6.406570841889117,6,new items
14028,39,chanterelle,chanterelle,target,upper-left,3aD3veUZ,orderB,1,pfifferling,7.13,high,f,6.406570841889117,6,new items
14722,40,orchid,orchid,target,lower-left,3aD3veUZ,orderB,1,orchidee,9.76,high,f,6.406570841889117,6,new items
11251,41,carnation,carnation,target,upper-right,3aD3veUZ,orderB,1,nelke,7.82,high,f,6.406570841889117,6,new items
4747,42,ventilator,ventilator,target,upper-right,3aD3veUZ,orderB,1,ventilator,6.59,high,f,6.406570841889117,6,new items
2545,43,labyrinth,labyrinth,target,lower-left,3aD3veUZ,orderB,1,labyrinth,6.63,high,f,6.406570841889117,6,new items
5535,44,ocean,ocean,target,upper-left,3aD3veUZ,orderB,1,ozean,6.46,high,f,6.406570841889117,6,new items
3891,45,lobster,lobster,target,upper-right,3aD3veUZ,orderB,1,hummer,8,high,f,6.406570841889117,6,new items
5953,46,cello,harp,dist1,lower-right,3aD3veUZ,orderB,0,cello,8.67,high,f,6.406570841889117,6,new items
11161,47,kayak,kayak,target,upper-left,3aD3veUZ,orderB,1,kajak,8.82,high,f,6.406570841889117,6,new items
