responseTime,trial,targetWord,chosenWord,chosenCategory,chosenPosition,subjID,order,correct,german,aoa_german_comb,group,sex,age,age_group,source,postcode
6774,1,squirrel,squirrel,target,lower-left,18X9TEt7,orderA,1,eichhörnchen,2.6,low,m,5.834360027378508,5,mpi,04103
4623,2,cap,cap,target,upper-right,18X9TEt7,orderA,1,mütze,1.95,low,m,5.834360027378508,5,mpi,04103
3747,3,door,door,target,lower-left,18X9TEt7,orderA,1,tür,3.12,low,m,5.834360027378508,5,mpi,04103
4177,4,stairs,stairs,target,lower-right,18X9TEt7,orderA,1,treppe,3.25,low,m,5.834360027378508,5,mpi,04103
4762,5,desk,desk,target,lower-left,18X9TEt7,orderA,1,schreibtisch,3.2,low,m,5.834360027378508,5,mpi,04103
3289,6,strawberry,strawberry,target,upper-left,18X9TEt7,orderA,1,erdbeere,3.47,low,m,5.834360027378508,5,mpi,04103
2619,7,eye,eye,target,upper-left,18X9TEt7,orderA,1,auge,2.69,low,m,5.834360027378508,5,mpi,04103
2836,8,plane,plane,target,lower-left,18X9TEt7,orderA,1,flugzeug,3.24,low,m,5.834360027378508,5,mpi,04103
2794,9,paintbrush,paintbrush,target,lower-left,18X9TEt7,orderA,1,pinsel,3.43,low,m,5.834360027378508,5,mpi,04103
2585,10,telephone,telephone,target,upper-right,18X9TEt7,orderA,1,telefon,3.53,middle,m,5.834360027378508,5,mpi,04103
2197,11,snake,snake,target,upper-left,18X9TEt7,orderA,1,schlange,2,low,m,5.834360027378508,5,mpi,04103
3371,12,carrot,carrot,target,lower-right,18X9TEt7,orderA,1,möhre,3.36,low,m,5.834360027378508,5,mpi,04103
2697,13,star,star,target,upper-left,18X9TEt7,orderA,1,stern,3.29,low,m,5.834360027378508,5,mpi,04103
3146,14,scissors,scissors,target,upper-right,18X9TEt7,orderA,1,schere,3.38,low,m,5.834360027378508,5,mpi,04103
2212,15,tiger,tiger,target,upper-right,18X9TEt7,orderA,1,tiger,3.88,middle,m,5.834360027378508,5,mpi,04103
2794,16,bone,bone,target,lower-right,18X9TEt7,orderA,1,knochen,4.64,middle,m,5.834360027378508,5,mpi,04103
3966,17,apple,apple,target,upper-left,18X9TEt7,orderA,1,apfel,2.71,low,m,5.834360027378508,5,mpi,04103
2541,18,fish,fish,target,lower-left,18X9TEt7,orderA,1,fisch,2.76,low,m,5.834360027378508,5,mpi,04103
4350,19,ant,ant,target,upper-right,18X9TEt7,orderA,1,ameise,4.6,middle,m,5.834360027378508,5,mpi,04103
4603,20,belt,belt,target,lower-right,18X9TEt7,orderA,1,gürtel,4.11,middle,m,5.834360027378508,5,mpi,04103
6045,21,fryingpan,fryingpan,target,upper-left,18X9TEt7,orderA,1,pfanne,4.16,middle,m,5.834360027378508,5,mpi,04103
4667,22,zebra,zebra,target,upper-right,18X9TEt7,orderA,1,zebra,3.65,middle,m,5.834360027378508,5,mpi,04103
10881,23,needle,needle,target,upper-left,18X9TEt7,orderA,1,nadel,4.22,middle,m,5.834360027378508,5,mpi,04103
3820,24,bicycle,bicycle,target,upper-right,18X9TEt7,orderA,1,fahrrad,3.8,middle,m,5.834360027378508,5,mpi,04103
3580,25,ladder,ladder,target,upper-right,18X9TEt7,orderA,1,leiter,4.47,middle,m,5.834360027378508,5,mpi,04103
3494,26,battery,battery,target,lower-right,18X9TEt7,orderA,1,batterie,5.94,middle,m,5.834360027378508,5,mpi,04103
19029,27,elk,goblet,dist2,lower-right,18X9TEt7,orderA,0,elch,6.28,high,m,5.834360027378508,5,mpi,04103
14247,28,choir,choir,target,upper-right,18X9TEt7,orderA,1,chor,7.19,high,m,5.834360027378508,5,mpi,04103
2981,29,kangaroo,kangaroo,target,lower-left,18X9TEt7,orderA,1,känguru,5.89,middle,m,5.834360027378508,5,mpi,04103
3906,30,ventilator,ventilator,target,upper-right,18X9TEt7,orderA,1,ventilator,6.59,high,m,5.834360027378508,5,mpi,04103
9752,31,arugula,brusselsprouts,dist1,lower-left,18X9TEt7,orderA,0,rucola,6.18,high,m,5.834360027378508,5,mpi,04103
2788,32,flag,flag,target,lower-right,18X9TEt7,orderA,1,flagge,5.86,middle,m,5.834360027378508,5,mpi,04103
3686,33,giraffe,giraffe,target,upper-left,18X9TEt7,orderA,1,giraffe,3.79,middle,m,5.834360027378508,5,mpi,04103
8075,34,palmtree,drinkingstraws,dist2,lower-right,18X9TEt7,orderA,0,palme,6.57,high,m,5.834360027378508,5,mpi,04103
2445,35,pineapple,pineapple,target,lower-right,18X9TEt7,orderA,1,ananas,4.1,middle,m,5.834360027378508,5,mpi,04103
6714,36,ocean,pelican,dist2,lower-right,18X9TEt7,orderA,0,ozean,6.46,high,m,5.834360027378508,5,mpi,04103
5141,37,gazelle,dragonfly,dist2,upper-left,18X9TEt7,orderA,0,gazelle,6.31,high,m,5.834360027378508,5,mpi,04103
6677,38,ruler,ruler,target,lower-left,18X9TEt7,orderA,1,lineal,4.9,middle,m,5.834360027378508,5,mpi,04103
8914,39,badger,badger,target,lower-left,18X9TEt7,orderA,1,dachs,6.17,high,m,5.834360027378508,5,mpi,04103
19382,40,chanterelle,chanterelle,target,upper-left,18X9TEt7,orderA,1,pfifferling,7.13,high,m,5.834360027378508,5,mpi,04103
6671,41,ruin,ruin,target,lower-right,18X9TEt7,orderA,1,ruine,6.21,high,m,5.834360027378508,5,mpi,04103
4416,42,labyrinth,labyrinth,target,lower-left,18X9TEt7,orderA,1,labyrinth,6.63,high,m,5.834360027378508,5,mpi,04103
24095,43,mushroom,mushroom,target,lower-right,18X9TEt7,orderA,1,pilz,3.67,middle,m,5.834360027378508,5,mpi,04103
13724,44,orchid,banner,dist3,lower-right,18X9TEt7,orderA,0,orchidee,9.76,high,m,5.834360027378508,5,mpi,04103
4034,45,zucchini,zucchini,target,upper-right,18X9TEt7,orderA,1,zucchini,5.95,middle,m,5.834360027378508,5,mpi,04103
4162,46,kayak,kayak,target,upper-left,18X9TEt7,orderA,1,kajak,8.82,high,m,5.834360027378508,5,mpi,04103
3404,47,lobster,lobster,target,upper-right,18X9TEt7,orderA,1,hummer,8,high,m,5.834360027378508,5,mpi,04103
6194,48,jaguar,panther,dist1,lower-left,18X9TEt7,orderA,0,jaguar,7.64,high,m,5.834360027378508,5,mpi,04103
20141,49,carnation,carnation,target,upper-right,18X9TEt7,orderA,1,nelke,7.82,high,m,5.834360027378508,5,mpi,04103
9197,50,satellite,meteorid,dist2,lower-right,18X9TEt7,orderA,0,satellit,8.94,high,m,5.834360027378508,5,mpi,04103
8024,51,flounder,flounder,target,lower-right,18X9TEt7,orderA,1,flunder,6.95,high,m,5.834360027378508,5,mpi,04103
4279,52,cello,marshmallow,dist2,upper-right,18X9TEt7,orderA,0,cello,8.67,high,m,5.834360027378508,5,mpi,04103
7687,1,squirrel,squirrel,target,lower-left,1aaesBEa,orderA,1,eichhörnchen,2.6,low,f,7.756331279945243,7,mpi,04103
7271,2,cap,cap,target,upper-right,1aaesBEa,orderA,1,mütze,1.95,low,f,7.756331279945243,7,mpi,04103
4122,3,door,door,target,lower-left,1aaesBEa,orderA,1,tür,3.12,low,f,7.756331279945243,7,mpi,04103
3793,4,stairs,stairs,target,lower-right,1aaesBEa,orderA,1,treppe,3.25,low,f,7.756331279945243,7,mpi,04103
4600,5,desk,desk,target,lower-left,1aaesBEa,orderA,1,schreibtisch,3.2,low,f,7.756331279945243,7,mpi,04103
3441,6,strawberry,strawberry,target,upper-left,1aaesBEa,orderA,1,erdbeere,3.47,low,f,7.756331279945243,7,mpi,04103
3291,7,eye,eye,target,upper-left,1aaesBEa,orderA,1,auge,2.69,low,f,7.756331279945243,7,mpi,04103
4026,8,plane,plane,target,lower-left,1aaesBEa,orderA,1,flugzeug,3.24,low,f,7.756331279945243,7,mpi,04103
2073,9,paintbrush,paintbrush,target,lower-left,1aaesBEa,orderA,1,pinsel,3.43,low,f,7.756331279945243,7,mpi,04103
3053,10,telephone,telephone,target,upper-right,1aaesBEa,orderA,1,telefon,3.53,middle,f,7.756331279945243,7,mpi,04103
3478,11,snake,snake,target,upper-left,1aaesBEa,orderA,1,schlange,2,low,f,7.756331279945243,7,mpi,04103
2300,12,carrot,carrot,target,lower-right,1aaesBEa,orderA,1,möhre,3.36,low,f,7.756331279945243,7,mpi,04103
3443,13,star,star,target,upper-left,1aaesBEa,orderA,1,stern,3.29,low,f,7.756331279945243,7,mpi,04103
4025,14,scissors,scissors,target,upper-right,1aaesBEa,orderA,1,schere,3.38,low,f,7.756331279945243,7,mpi,04103
2492,15,tiger,tiger,target,upper-right,1aaesBEa,orderA,1,tiger,3.88,middle,f,7.756331279945243,7,mpi,04103
2186,16,bone,bone,target,lower-right,1aaesBEa,orderA,1,knochen,4.64,middle,f,7.756331279945243,7,mpi,04103
6184,17,apple,apple,target,upper-left,1aaesBEa,orderA,1,apfel,2.71,low,f,7.756331279945243,7,mpi,04103
5737,18,fish,fish,target,lower-left,1aaesBEa,orderA,1,fisch,2.76,low,f,7.756331279945243,7,mpi,04103
5571,19,ant,ant,target,upper-right,1aaesBEa,orderA,1,ameise,4.6,middle,f,7.756331279945243,7,mpi,04103
4917,20,belt,belt,target,lower-right,1aaesBEa,orderA,1,gürtel,4.11,middle,f,7.756331279945243,7,mpi,04103
4116,21,fryingpan,fryingpan,target,upper-left,1aaesBEa,orderA,1,pfanne,4.16,middle,f,7.756331279945243,7,mpi,04103
3706,22,zebra,zebra,target,upper-right,1aaesBEa,orderA,1,zebra,3.65,middle,f,7.756331279945243,7,mpi,04103
4218,23,needle,needle,target,upper-left,1aaesBEa,orderA,1,nadel,4.22,middle,f,7.756331279945243,7,mpi,04103
3229,24,bicycle,bicycle,target,upper-right,1aaesBEa,orderA,1,fahrrad,3.8,middle,f,7.756331279945243,7,mpi,04103
7309,25,ladder,ladder,target,upper-right,1aaesBEa,orderA,1,leiter,4.47,middle,f,7.756331279945243,7,mpi,04103
2751,26,battery,battery,target,lower-right,1aaesBEa,orderA,1,batterie,5.94,middle,f,7.756331279945243,7,mpi,04103
2956,27,elk,elk,target,upper-left,1aaesBEa,orderA,1,elch,6.28,high,f,7.756331279945243,7,mpi,04103
10608,28,choir,choir,target,upper-right,1aaesBEa,orderA,1,chor,7.19,high,f,7.756331279945243,7,mpi,04103
4843,29,kangaroo,kangaroo,target,lower-left,1aaesBEa,orderA,1,känguru,5.89,middle,f,7.756331279945243,7,mpi,04103
4469,30,ventilator,ventilator,target,upper-right,1aaesBEa,orderA,1,ventilator,6.59,high,f,7.756331279945243,7,mpi,04103
16594,31,arugula,arugula,target,lower-right,1aaesBEa,orderA,1,rucola,6.18,high,f,7.756331279945243,7,mpi,04103
3597,32,flag,flag,target,lower-right,1aaesBEa,orderA,1,flagge,5.86,middle,f,7.756331279945243,7,mpi,04103
4747,33,giraffe,giraffe,target,upper-left,1aaesBEa,orderA,1,giraffe,3.79,middle,f,7.756331279945243,7,mpi,04103
5633,34,palmtree,palmtree,target,lower-left,1aaesBEa,orderA,1,palme,6.57,high,f,7.756331279945243,7,mpi,04103
4710,35,pineapple,pineapple,target,lower-right,1aaesBEa,orderA,1,ananas,4.1,middle,f,7.756331279945243,7,mpi,04103
4038,36,ocean,ocean,target,upper-left,1aaesBEa,orderA,1,ozean,6.46,high,f,7.756331279945243,7,mpi,04103
9796,37,gazelle,gazelle,target,lower-right,1aaesBEa,orderA,1,gazelle,6.31,high,f,7.756331279945243,7,mpi,04103
4182,38,ruler,ruler,target,lower-left,1aaesBEa,orderA,1,lineal,4.9,middle,f,7.756331279945243,7,mpi,04103
3382,39,badger,badger,target,lower-left,1aaesBEa,orderA,1,dachs,6.17,high,f,7.756331279945243,7,mpi,04103
19137,40,chanterelle,chanterelle,target,upper-left,1aaesBEa,orderA,1,pfifferling,7.13,high,f,7.756331279945243,7,mpi,04103
9305,41,ruin,ruin,target,lower-right,1aaesBEa,orderA,1,ruine,6.21,high,f,7.756331279945243,7,mpi,04103
2639,42,labyrinth,labyrinth,target,lower-left,1aaesBEa,orderA,1,labyrinth,6.63,high,f,7.756331279945243,7,mpi,04103
2325,43,mushroom,mushroom,target,lower-right,1aaesBEa,orderA,1,pilz,3.67,middle,f,7.756331279945243,7,mpi,04103
5143,44,orchid,orchid,target,lower-left,1aaesBEa,orderA,1,orchidee,9.76,high,f,7.756331279945243,7,mpi,04103
3951,45,zucchini,zucchini,target,upper-right,1aaesBEa,orderA,1,zucchini,5.95,middle,f,7.756331279945243,7,mpi,04103
7282,46,kayak,boomerang,dist3,lower-right,1aaesBEa,orderA,0,kajak,8.82,high,f,7.756331279945243,7,mpi,04103
3110,47,lobster,lobster,target,upper-right,1aaesBEa,orderA,1,hummer,8,high,f,7.756331279945243,7,mpi,04103
1980,48,jaguar,jaguar,target,lower-right,1aaesBEa,orderA,1,jaguar,7.64,high,f,7.756331279945243,7,mpi,04103
9019,49,carnation,violets,dist1,lower-right,1aaesBEa,orderA,0,nelke,7.82,high,f,7.756331279945243,7,mpi,04103
7811,50,satellite,meteorid,dist2,lower-right,1aaesBEa,orderA,0,satellit,8.94,high,f,7.756331279945243,7,mpi,04103
19885,51,flounder,flounder,target,lower-right,1aaesBEa,orderA,1,flunder,6.95,high,f,7.756331279945243,7,mpi,04103
4159,52,cello,cello,target,lower-left,1aaesBEa,orderA,1,cello,8.67,high,f,7.756331279945243,7,mpi,04103
13972,1,door,door,target,lower-left,1GuQWuLR,orderB,1,tür,3.12,low,m,5.8507871321013,5,mpi,04103
12812,2,stairs,stairs,target,lower-right,1GuQWuLR,orderB,1,treppe,3.25,low,m,5.8507871321013,5,mpi,04103
10418,3,eye,eye,target,upper-left,1GuQWuLR,orderB,1,auge,2.69,low,m,5.8507871321013,5,mpi,04103
9287,4,desk,desk,target,lower-left,1GuQWuLR,orderB,1,schreibtisch,3.2,low,m,5.8507871321013,5,mpi,04103
6707,5,star,star,target,upper-left,1GuQWuLR,orderB,1,stern,3.29,low,m,5.8507871321013,5,mpi,04103
6245,6,squirrel,squirrel,target,lower-left,1GuQWuLR,orderB,1,eichhörnchen,2.6,low,m,5.8507871321013,5,mpi,04103
10698,7,cap,cap,target,upper-right,1GuQWuLR,orderB,1,mütze,1.95,low,m,5.8507871321013,5,mpi,04103
8133,8,telephone,telephone,target,upper-right,1GuQWuLR,orderB,1,telefon,3.53,middle,m,5.8507871321013,5,mpi,04103
10074,9,strawberry,strawberry,target,upper-left,1GuQWuLR,orderB,1,erdbeere,3.47,low,m,5.8507871321013,5,mpi,04103
9190,10,scissors,scissors,target,upper-right,1GuQWuLR,orderB,1,schere,3.38,low,m,5.8507871321013,5,mpi,04103
15067,11,bone,bone,target,lower-right,1GuQWuLR,orderB,1,knochen,4.64,middle,m,5.8507871321013,5,mpi,04103
9453,12,paintbrush,paintbrush,target,lower-left,1GuQWuLR,orderB,1,pinsel,3.43,low,m,5.8507871321013,5,mpi,04103
3408,13,fryingpan,fryingpan,target,upper-left,1GuQWuLR,orderB,1,pfanne,4.16,middle,m,5.8507871321013,5,mpi,04103
4547,14,carrot,carrot,target,lower-right,1GuQWuLR,orderB,1,möhre,3.36,low,m,5.8507871321013,5,mpi,04103
5511,15,plane,plane,target,lower-left,1GuQWuLR,orderB,1,flugzeug,3.24,low,m,5.8507871321013,5,mpi,04103
8257,16,tiger,tiger,target,upper-right,1GuQWuLR,orderB,1,tiger,3.88,middle,m,5.8507871321013,5,mpi,04103
7908,17,snake,snake,target,upper-left,1GuQWuLR,orderB,1,schlange,2,low,m,5.8507871321013,5,mpi,04103
9183,18,apple,apple,target,upper-left,1GuQWuLR,orderB,1,apfel,2.71,low,m,5.8507871321013,5,mpi,04103
8759,19,battery,battery,target,lower-right,1GuQWuLR,orderB,1,batterie,5.94,middle,m,5.8507871321013,5,mpi,04103
3891,20,flag,flag,target,lower-right,1GuQWuLR,orderB,1,flagge,5.86,middle,m,5.8507871321013,5,mpi,04103
8067,21,ladder,ladder,target,upper-right,1GuQWuLR,orderB,1,leiter,4.47,middle,m,5.8507871321013,5,mpi,04103
14134,22,fish,fish,target,lower-left,1GuQWuLR,orderB,1,fisch,2.76,low,m,5.8507871321013,5,mpi,04103
8539,23,giraffe,giraffe,target,upper-left,1GuQWuLR,orderB,1,giraffe,3.79,middle,m,5.8507871321013,5,mpi,04103
7843,24,ant,ant,target,upper-right,1GuQWuLR,orderB,1,ameise,4.6,middle,m,5.8507871321013,5,mpi,04103
15612,25,bicycle,bicycle,target,upper-right,1GuQWuLR,orderB,1,fahrrad,3.8,middle,m,5.8507871321013,5,mpi,04103
18405,26,ruin,ruin,target,lower-right,1GuQWuLR,orderB,1,ruine,6.21,high,m,5.8507871321013,5,mpi,04103
27233,27,choir,choir,target,upper-right,1GuQWuLR,orderB,1,chor,7.19,high,m,5.8507871321013,5,mpi,04103
11801,28,pineapple,pineapple,target,lower-right,1GuQWuLR,orderB,1,ananas,4.1,middle,m,5.8507871321013,5,mpi,04103
13171,29,zebra,zebra,target,upper-right,1GuQWuLR,orderB,1,zebra,3.65,middle,m,5.8507871321013,5,mpi,04103
7067,30,belt,belt,target,lower-right,1GuQWuLR,orderB,1,gürtel,4.11,middle,m,5.8507871321013,5,mpi,04103
5161,31,mushroom,mushroom,target,lower-right,1GuQWuLR,orderB,1,pilz,3.67,middle,m,5.8507871321013,5,mpi,04103
8519,32,elk,elk,target,upper-left,1GuQWuLR,orderB,1,elch,6.28,high,m,5.8507871321013,5,mpi,04103
24794,33,needle,needle,target,upper-left,1GuQWuLR,orderB,1,nadel,4.22,middle,m,5.8507871321013,5,mpi,04103
17528,34,arugula,arugula,target,lower-right,1GuQWuLR,orderB,1,rucola,6.18,high,m,5.8507871321013,5,mpi,04103
7122,35,palmtree,palmtree,target,lower-left,1GuQWuLR,orderB,1,palme,6.57,high,m,5.8507871321013,5,mpi,04103
5990,36,kangaroo,kangaroo,target,lower-left,1GuQWuLR,orderB,1,känguru,5.89,middle,m,5.8507871321013,5,mpi,04103
18332,37,gazelle,gazelle,target,lower-right,1GuQWuLR,orderB,1,gazelle,6.31,high,m,5.8507871321013,5,mpi,04103
9923,38,badger,badger,target,lower-left,1GuQWuLR,orderB,1,dachs,6.17,high,m,5.8507871321013,5,mpi,04103
15539,39,chanterelle,chanterelle,target,upper-left,1GuQWuLR,orderB,1,pfifferling,7.13,high,m,5.8507871321013,5,mpi,04103
30200,40,orchid,orchid,target,lower-left,1GuQWuLR,orderB,1,orchidee,9.76,high,m,5.8507871321013,5,mpi,04103
17476,41,carnation,violets,dist1,lower-right,1GuQWuLR,orderB,0,nelke,7.82,high,m,5.8507871321013,5,mpi,04103
8392,42,ventilator,ventilator,target,upper-right,1GuQWuLR,orderB,1,ventilator,6.59,high,m,5.8507871321013,5,mpi,04103
7872,43,labyrinth,labyrinth,target,lower-left,1GuQWuLR,orderB,1,labyrinth,6.63,high,m,5.8507871321013,5,mpi,04103
19475,44,ocean,ocean,target,upper-left,1GuQWuLR,orderB,1,ozean,6.46,high,m,5.8507871321013,5,mpi,04103
51307,45,lobster,lobster,target,upper-right,1GuQWuLR,orderB,1,hummer,8,high,m,5.8507871321013,5,mpi,04103
8872,46,cello,cello,target,lower-left,1GuQWuLR,orderB,1,cello,8.67,high,m,5.8507871321013,5,mpi,04103
14835,47,kayak,kayak,target,upper-left,1GuQWuLR,orderB,1,kajak,8.82,high,m,5.8507871321013,5,mpi,04103
5458,48,ruler,ruler,target,lower-left,1GuQWuLR,orderB,1,lineal,4.9,middle,m,5.8507871321013,5,mpi,04103
20328,49,jaguar,jaguar,target,lower-right,1GuQWuLR,orderB,1,jaguar,7.64,high,m,5.8507871321013,5,mpi,04103
54952,50,flounder,flounder,target,lower-right,1GuQWuLR,orderB,1,flunder,6.95,high,m,5.8507871321013,5,mpi,04103
11846,51,satellite,satellite,target,upper-left,1GuQWuLR,orderB,1,satellit,8.94,high,m,5.8507871321013,5,mpi,04103
10274,52,zucchini,zucchini,target,upper-right,1GuQWuLR,orderB,1,zucchini,5.95,middle,m,5.8507871321013,5,mpi,04103
3627,1,squirrel,squirrel,target,lower-left,1VTSBPTe,orderA,1,eichhörnchen,2.6,low,f,5.768651608487337,5,mpi,04103
3520,2,cap,cap,target,upper-right,1VTSBPTe,orderA,1,mütze,1.95,low,f,5.768651608487337,5,mpi,04103
3051,3,door,door,target,lower-left,1VTSBPTe,orderA,1,tür,3.12,low,f,5.768651608487337,5,mpi,04103
2882,4,stairs,stairs,target,lower-right,1VTSBPTe,orderA,1,treppe,3.25,low,f,5.768651608487337,5,mpi,04103
6045,5,desk,desk,target,lower-left,1VTSBPTe,orderA,1,schreibtisch,3.2,low,f,5.768651608487337,5,mpi,04103
2317,6,strawberry,strawberry,target,upper-left,1VTSBPTe,orderA,1,erdbeere,3.47,low,f,5.768651608487337,5,mpi,04103
1625,7,eye,eye,target,upper-left,1VTSBPTe,orderA,1,auge,2.69,low,f,5.768651608487337,5,mpi,04103
3787,8,plane,plane,target,lower-left,1VTSBPTe,orderA,1,flugzeug,3.24,low,f,5.768651608487337,5,mpi,04103
4084,9,paintbrush,paintbrush,target,lower-left,1VTSBPTe,orderA,1,pinsel,3.43,low,f,5.768651608487337,5,mpi,04103
3314,10,telephone,telephone,target,upper-right,1VTSBPTe,orderA,1,telefon,3.53,middle,f,5.768651608487337,5,mpi,04103
2806,11,snake,snake,target,upper-left,1VTSBPTe,orderA,1,schlange,2,low,f,5.768651608487337,5,mpi,04103
3367,12,carrot,carrot,target,lower-right,1VTSBPTe,orderA,1,möhre,3.36,low,f,5.768651608487337,5,mpi,04103
1803,13,star,star,target,upper-left,1VTSBPTe,orderA,1,stern,3.29,low,f,5.768651608487337,5,mpi,04103
2887,14,scissors,scissors,target,upper-right,1VTSBPTe,orderA,1,schere,3.38,low,f,5.768651608487337,5,mpi,04103
2486,15,tiger,tiger,target,upper-right,1VTSBPTe,orderA,1,tiger,3.88,middle,f,5.768651608487337,5,mpi,04103
1371,16,bone,bone,target,lower-right,1VTSBPTe,orderA,1,knochen,4.64,middle,f,5.768651608487337,5,mpi,04103
1586,17,apple,apple,target,upper-left,1VTSBPTe,orderA,1,apfel,2.71,low,f,5.768651608487337,5,mpi,04103
2858,18,fish,fish,target,lower-left,1VTSBPTe,orderA,1,fisch,2.76,low,f,5.768651608487337,5,mpi,04103
1929,19,ant,ant,target,upper-right,1VTSBPTe,orderA,1,ameise,4.6,middle,f,5.768651608487337,5,mpi,04103
2114,20,belt,belt,target,lower-right,1VTSBPTe,orderA,1,gürtel,4.11,middle,f,5.768651608487337,5,mpi,04103
3917,21,fryingpan,fryingpan,target,upper-left,1VTSBPTe,orderA,1,pfanne,4.16,middle,f,5.768651608487337,5,mpi,04103
2819,22,zebra,zebra,target,upper-right,1VTSBPTe,orderA,1,zebra,3.65,middle,f,5.768651608487337,5,mpi,04103
3641,23,needle,needle,target,upper-left,1VTSBPTe,orderA,1,nadel,4.22,middle,f,5.768651608487337,5,mpi,04103
3188,24,bicycle,bicycle,target,upper-right,1VTSBPTe,orderA,1,fahrrad,3.8,middle,f,5.768651608487337,5,mpi,04103
5397,25,ladder,ladder,target,upper-right,1VTSBPTe,orderA,1,leiter,4.47,middle,f,5.768651608487337,5,mpi,04103
6980,26,battery,battery,target,lower-right,1VTSBPTe,orderA,1,batterie,5.94,middle,f,5.768651608487337,5,mpi,04103
47497,27,elk,elk,target,upper-left,1VTSBPTe,orderA,1,elch,6.28,high,f,5.768651608487337,5,mpi,04103
88073,28,choir,orchestra,dist1,lower-right,1VTSBPTe,orderA,0,chor,7.19,high,f,5.768651608487337,5,mpi,04103
2418,29,kangaroo,kangaroo,target,lower-left,1VTSBPTe,orderA,1,känguru,5.89,middle,f,5.768651608487337,5,mpi,04103
4041,30,ventilator,ventilator,target,upper-right,1VTSBPTe,orderA,1,ventilator,6.59,high,f,5.768651608487337,5,mpi,04103
50648,31,arugula,dracula,dist2,upper-left,1VTSBPTe,orderA,0,rucola,6.18,high,f,5.768651608487337,5,mpi,04103
2881,32,flag,flag,target,lower-right,1VTSBPTe,orderA,1,flagge,5.86,middle,f,5.768651608487337,5,mpi,04103
1763,33,giraffe,giraffe,target,upper-left,1VTSBPTe,orderA,1,giraffe,3.79,middle,f,5.768651608487337,5,mpi,04103
8867,34,palmtree,cactus,dist1,upper-right,1VTSBPTe,orderA,0,palme,6.57,high,f,5.768651608487337,5,mpi,04103
2742,35,pineapple,pineapple,target,lower-right,1VTSBPTe,orderA,1,ananas,4.1,middle,f,5.768651608487337,5,mpi,04103
7273,36,ocean,ocean,target,upper-left,1VTSBPTe,orderA,1,ozean,6.46,high,f,5.768651608487337,5,mpi,04103
14251,37,gazelle,dragonfly,dist2,upper-left,1VTSBPTe,orderA,0,gazelle,6.31,high,f,5.768651608487337,5,mpi,04103
3168,38,ruler,ruler,target,lower-left,1VTSBPTe,orderA,1,lineal,4.9,middle,f,5.768651608487337,5,mpi,04103
4227,39,badger,badger,target,lower-left,1VTSBPTe,orderA,1,dachs,6.17,high,f,5.768651608487337,5,mpi,04103
2594,40,chanterelle,chanterelle,target,upper-left,1VTSBPTe,orderA,1,pfifferling,7.13,high,f,5.768651608487337,5,mpi,04103
4560,41,ruin,fortress,dist1,upper-right,1VTSBPTe,orderA,0,ruine,6.21,high,f,5.768651608487337,5,mpi,04103
2234,42,labyrinth,whirlwind,dist2,lower-right,1VTSBPTe,orderA,0,labyrinth,6.63,high,f,5.768651608487337,5,mpi,04103
1740,43,mushroom,mushroom,target,lower-right,1VTSBPTe,orderA,1,pilz,3.67,middle,f,5.768651608487337,5,mpi,04103
6442,44,orchid,banner,dist3,lower-right,1VTSBPTe,orderA,0,orchidee,9.76,high,f,5.768651608487337,5,mpi,04103
6269,45,zucchini,zucchini,target,upper-right,1VTSBPTe,orderA,1,zucchini,5.95,middle,f,5.768651608487337,5,mpi,04103
2518,46,kayak,kayak,target,upper-left,1VTSBPTe,orderA,1,kajak,8.82,high,f,5.768651608487337,5,mpi,04103
1992,47,lobster,clip,dist2,lower-left,1VTSBPTe,orderA,0,hummer,8,high,f,5.768651608487337,5,mpi,04103
3187,48,jaguar,jaguar,target,lower-right,1VTSBPTe,orderA,1,jaguar,7.64,high,f,5.768651608487337,5,mpi,04103
4514,49,carnation,compass,dist3,upper-left,1VTSBPTe,orderA,0,nelke,7.82,high,f,5.768651608487337,5,mpi,04103
12085,50,satellite,rocket,dist1,upper-right,1VTSBPTe,orderA,0,satellit,8.94,high,f,5.768651608487337,5,mpi,04103
4589,51,flounder,pyramid,dist3,upper-right,1VTSBPTe,orderA,0,flunder,6.95,high,f,5.768651608487337,5,mpi,04103
3440,52,cello,cello,target,lower-left,1VTSBPTe,orderA,1,cello,8.67,high,f,5.768651608487337,5,mpi,04103
7005,1,squirrel,squirrel,target,lower-left,1XKPmPrA,orderA,1,eichhörnchen,2.6,low,m,5.68104038329911,5,mpi,04103
4301,2,cap,cap,target,upper-right,1XKPmPrA,orderA,1,mütze,1.95,low,m,5.68104038329911,5,mpi,04103
3609,3,door,door,target,lower-left,1XKPmPrA,orderA,1,tür,3.12,low,m,5.68104038329911,5,mpi,04103
3693,4,stairs,stairs,target,lower-right,1XKPmPrA,orderA,1,treppe,3.25,low,m,5.68104038329911,5,mpi,04103
4979,5,desk,desk,target,lower-left,1XKPmPrA,orderA,1,schreibtisch,3.2,low,m,5.68104038329911,5,mpi,04103
5010,6,strawberry,strawberry,target,upper-left,1XKPmPrA,orderA,1,erdbeere,3.47,low,m,5.68104038329911,5,mpi,04103
2273,7,eye,eye,target,upper-left,1XKPmPrA,orderA,1,auge,2.69,low,m,5.68104038329911,5,mpi,04103
9529,8,plane,plane,target,lower-left,1XKPmPrA,orderA,1,flugzeug,3.24,low,m,5.68104038329911,5,mpi,04103
2632,9,paintbrush,paintbrush,target,lower-left,1XKPmPrA,orderA,1,pinsel,3.43,low,m,5.68104038329911,5,mpi,04103
4628,10,telephone,telephone,target,upper-right,1XKPmPrA,orderA,1,telefon,3.53,middle,m,5.68104038329911,5,mpi,04103
1978,11,snake,snake,target,upper-left,1XKPmPrA,orderA,1,schlange,2,low,m,5.68104038329911,5,mpi,04103
2057,12,carrot,carrot,target,lower-right,1XKPmPrA,orderA,1,möhre,3.36,low,m,5.68104038329911,5,mpi,04103
1918,13,star,star,target,upper-left,1XKPmPrA,orderA,1,stern,3.29,low,m,5.68104038329911,5,mpi,04103
1660,14,scissors,scissors,target,upper-right,1XKPmPrA,orderA,1,schere,3.38,low,m,5.68104038329911,5,mpi,04103
1870,15,tiger,tiger,target,upper-right,1XKPmPrA,orderA,1,tiger,3.88,middle,m,5.68104038329911,5,mpi,04103
2077,16,bone,bone,target,lower-right,1XKPmPrA,orderA,1,knochen,4.64,middle,m,5.68104038329911,5,mpi,04103
2087,17,apple,apple,target,upper-left,1XKPmPrA,orderA,1,apfel,2.71,low,m,5.68104038329911,5,mpi,04103
2185,18,fish,fish,target,lower-left,1XKPmPrA,orderA,1,fisch,2.76,low,m,5.68104038329911,5,mpi,04103
1951,19,ant,ant,target,upper-right,1XKPmPrA,orderA,1,ameise,4.6,middle,m,5.68104038329911,5,mpi,04103
1867,20,belt,belt,target,lower-right,1XKPmPrA,orderA,1,gürtel,4.11,middle,m,5.68104038329911,5,mpi,04103
2984,21,fryingpan,fryingpan,target,upper-left,1XKPmPrA,orderA,1,pfanne,4.16,middle,m,5.68104038329911,5,mpi,04103
2535,22,zebra,zebra,target,upper-right,1XKPmPrA,orderA,1,zebra,3.65,middle,m,5.68104038329911,5,mpi,04103
3344,23,needle,needle,target,upper-left,1XKPmPrA,orderA,1,nadel,4.22,middle,m,5.68104038329911,5,mpi,04103
2885,24,bicycle,bicycle,target,upper-right,1XKPmPrA,orderA,1,fahrrad,3.8,middle,m,5.68104038329911,5,mpi,04103
3174,25,ladder,ladder,target,upper-right,1XKPmPrA,orderA,1,leiter,4.47,middle,m,5.68104038329911,5,mpi,04103
3019,26,battery,battery,target,lower-right,1XKPmPrA,orderA,1,batterie,5.94,middle,m,5.68104038329911,5,mpi,04103
2164,27,elk,elk,target,upper-left,1XKPmPrA,orderA,1,elch,6.28,high,m,5.68104038329911,5,mpi,04103
7729,28,choir,orchestra,dist1,lower-right,1XKPmPrA,orderA,0,chor,7.19,high,m,5.68104038329911,5,mpi,04103
3089,29,kangaroo,kangaroo,target,lower-left,1XKPmPrA,orderA,1,känguru,5.89,middle,m,5.68104038329911,5,mpi,04103
2489,30,ventilator,ventilator,target,upper-right,1XKPmPrA,orderA,1,ventilator,6.59,high,m,5.68104038329911,5,mpi,04103
6041,31,arugula,dracula,dist2,upper-left,1XKPmPrA,orderA,0,rucola,6.18,high,m,5.68104038329911,5,mpi,04103
3470,32,flag,flag,target,lower-right,1XKPmPrA,orderA,1,flagge,5.86,middle,m,5.68104038329911,5,mpi,04103
1791,33,giraffe,giraffe,target,upper-left,1XKPmPrA,orderA,1,giraffe,3.79,middle,m,5.68104038329911,5,mpi,04103
2017,34,palmtree,palmtree,target,lower-left,1XKPmPrA,orderA,1,palme,6.57,high,m,5.68104038329911,5,mpi,04103
1930,35,pineapple,pineapple,target,lower-right,1XKPmPrA,orderA,1,ananas,4.1,middle,m,5.68104038329911,5,mpi,04103
3996,36,ocean,ocean,target,upper-left,1XKPmPrA,orderA,1,ozean,6.46,high,m,5.68104038329911,5,mpi,04103
10454,37,gazelle,dragonfly,dist2,upper-left,1XKPmPrA,orderA,0,gazelle,6.31,high,m,5.68104038329911,5,mpi,04103
3520,38,ruler,ruler,target,lower-left,1XKPmPrA,orderA,1,lineal,4.9,middle,m,5.68104038329911,5,mpi,04103
4828,39,badger,badger,target,lower-left,1XKPmPrA,orderA,1,dachs,6.17,high,m,5.68104038329911,5,mpi,04103
5436,40,chanterelle,chanterelle,target,upper-left,1XKPmPrA,orderA,1,pfifferling,7.13,high,m,5.68104038329911,5,mpi,04103
10192,41,ruin,ruin,target,lower-right,1XKPmPrA,orderA,1,ruine,6.21,high,m,5.68104038329911,5,mpi,04103
2882,42,labyrinth,labyrinth,target,lower-left,1XKPmPrA,orderA,1,labyrinth,6.63,high,m,5.68104038329911,5,mpi,04103
2572,43,mushroom,mushroom,target,lower-right,1XKPmPrA,orderA,1,pilz,3.67,middle,m,5.68104038329911,5,mpi,04103
6563,44,orchid,orchid,target,lower-left,1XKPmPrA,orderA,1,orchidee,9.76,high,m,5.68104038329911,5,mpi,04103
3518,45,zucchini,zucchini,target,upper-right,1XKPmPrA,orderA,1,zucchini,5.95,middle,m,5.68104038329911,5,mpi,04103
6029,46,kayak,kayak,target,upper-left,1XKPmPrA,orderA,1,kajak,8.82,high,m,5.68104038329911,5,mpi,04103
5271,47,lobster,lobster,target,upper-right,1XKPmPrA,orderA,1,hummer,8,high,m,5.68104038329911,5,mpi,04103
7382,48,jaguar,jaguar,target,lower-right,1XKPmPrA,orderA,1,jaguar,7.64,high,m,5.68104038329911,5,mpi,04103
6379,49,carnation,compass,dist3,upper-left,1XKPmPrA,orderA,0,nelke,7.82,high,m,5.68104038329911,5,mpi,04103
10418,50,satellite,cell,dist3,lower-left,1XKPmPrA,orderA,0,satellit,8.94,high,m,5.68104038329911,5,mpi,04103
5884,51,flounder,flounder,target,lower-right,1XKPmPrA,orderA,1,flunder,6.95,high,m,5.68104038329911,5,mpi,04103
8210,52,cello,marshmallow,dist2,upper-right,1XKPmPrA,orderA,0,cello,8.67,high,m,5.68104038329911,5,mpi,04103
5106,1,squirrel,squirrel,target,lower-left,2qBznRbX,orderA,1,eichhörnchen,2.6,low,m,7.84394250513347,7,mpi,04103
4281,2,cap,cap,target,upper-right,2qBznRbX,orderA,1,mütze,1.95,low,m,7.84394250513347,7,mpi,04103
3960,3,door,door,target,lower-left,2qBznRbX,orderA,1,tür,3.12,low,m,7.84394250513347,7,mpi,04103
4114,4,stairs,stairs,target,lower-right,2qBznRbX,orderA,1,treppe,3.25,low,m,7.84394250513347,7,mpi,04103
4763,5,desk,desk,target,lower-left,2qBznRbX,orderA,1,schreibtisch,3.2,low,m,7.84394250513347,7,mpi,04103
3136,6,strawberry,strawberry,target,upper-left,2qBznRbX,orderA,1,erdbeere,3.47,low,m,7.84394250513347,7,mpi,04103
2834,7,eye,eye,target,upper-left,2qBznRbX,orderA,1,auge,2.69,low,m,7.84394250513347,7,mpi,04103
3024,8,plane,plane,target,lower-left,2qBznRbX,orderA,1,flugzeug,3.24,low,m,7.84394250513347,7,mpi,04103
2996,9,paintbrush,paintbrush,target,lower-left,2qBznRbX,orderA,1,pinsel,3.43,low,m,7.84394250513347,7,mpi,04103
2809,10,telephone,telephone,target,upper-right,2qBznRbX,orderA,1,telefon,3.53,middle,m,7.84394250513347,7,mpi,04103
2704,11,snake,snake,target,upper-left,2qBznRbX,orderA,1,schlange,2,low,m,7.84394250513347,7,mpi,04103
3103,12,carrot,carrot,target,lower-right,2qBznRbX,orderA,1,möhre,3.36,low,m,7.84394250513347,7,mpi,04103
2560,13,star,star,target,upper-left,2qBznRbX,orderA,1,stern,3.29,low,m,7.84394250513347,7,mpi,04103
2782,14,scissors,scissors,target,upper-right,2qBznRbX,orderA,1,schere,3.38,low,m,7.84394250513347,7,mpi,04103
5341,15,tiger,tiger,target,upper-right,2qBznRbX,orderA,1,tiger,3.88,middle,m,7.84394250513347,7,mpi,04103
4810,16,bone,bone,target,lower-right,2qBznRbX,orderA,1,knochen,4.64,middle,m,7.84394250513347,7,mpi,04103
3539,17,apple,apple,target,upper-left,2qBznRbX,orderA,1,apfel,2.71,low,m,7.84394250513347,7,mpi,04103
2922,18,fish,fish,target,lower-left,2qBznRbX,orderA,1,fisch,2.76,low,m,7.84394250513347,7,mpi,04103
2621,19,ant,ant,target,upper-right,2qBznRbX,orderA,1,ameise,4.6,middle,m,7.84394250513347,7,mpi,04103
4878,20,belt,belt,target,lower-right,2qBznRbX,orderA,1,gürtel,4.11,middle,m,7.84394250513347,7,mpi,04103
4471,21,fryingpan,fryingpan,target,upper-left,2qBznRbX,orderA,1,pfanne,4.16,middle,m,7.84394250513347,7,mpi,04103
3258,22,zebra,zebra,target,upper-right,2qBznRbX,orderA,1,zebra,3.65,middle,m,7.84394250513347,7,mpi,04103
3906,23,needle,needle,target,upper-left,2qBznRbX,orderA,1,nadel,4.22,middle,m,7.84394250513347,7,mpi,04103
3902,24,bicycle,bicycle,target,upper-right,2qBznRbX,orderA,1,fahrrad,3.8,middle,m,7.84394250513347,7,mpi,04103
3981,25,ladder,ladder,target,upper-right,2qBznRbX,orderA,1,leiter,4.47,middle,m,7.84394250513347,7,mpi,04103
3918,26,battery,battery,target,lower-right,2qBznRbX,orderA,1,batterie,5.94,middle,m,7.84394250513347,7,mpi,04103
6086,27,elk,elk,target,upper-left,2qBznRbX,orderA,1,elch,6.28,high,m,7.84394250513347,7,mpi,04103
3082,28,choir,choir,target,upper-right,2qBznRbX,orderA,1,chor,7.19,high,m,7.84394250513347,7,mpi,04103
2804,29,kangaroo,kangaroo,target,lower-left,2qBznRbX,orderA,1,känguru,5.89,middle,m,7.84394250513347,7,mpi,04103
6916,30,ventilator,ventilator,target,upper-right,2qBznRbX,orderA,1,ventilator,6.59,high,m,7.84394250513347,7,mpi,04103
5542,31,arugula,arugula,target,lower-right,2qBznRbX,orderA,1,rucola,6.18,high,m,7.84394250513347,7,mpi,04103
3776,32,flag,flag,target,lower-right,2qBznRbX,orderA,1,flagge,5.86,middle,m,7.84394250513347,7,mpi,04103
5880,33,giraffe,giraffe,target,upper-left,2qBznRbX,orderA,1,giraffe,3.79,middle,m,7.84394250513347,7,mpi,04103
3570,34,palmtree,palmtree,target,lower-left,2qBznRbX,orderA,1,palme,6.57,high,m,7.84394250513347,7,mpi,04103
4771,35,pineapple,pineapple,target,lower-right,2qBznRbX,orderA,1,ananas,4.1,middle,m,7.84394250513347,7,mpi,04103
2988,36,ocean,ocean,target,upper-left,2qBznRbX,orderA,1,ozean,6.46,high,m,7.84394250513347,7,mpi,04103
7056,37,gazelle,gazelle,target,lower-right,2qBznRbX,orderA,1,gazelle,6.31,high,m,7.84394250513347,7,mpi,04103
3076,38,ruler,ruler,target,lower-left,2qBznRbX,orderA,1,lineal,4.9,middle,m,7.84394250513347,7,mpi,04103
2805,39,badger,badger,target,lower-left,2qBznRbX,orderA,1,dachs,6.17,high,m,7.84394250513347,7,mpi,04103
3778,40,chanterelle,chanterelle,target,upper-left,2qBznRbX,orderA,1,pfifferling,7.13,high,m,7.84394250513347,7,mpi,04103
6732,41,ruin,ruin,target,lower-right,2qBznRbX,orderA,1,ruine,6.21,high,m,7.84394250513347,7,mpi,04103
6316,42,labyrinth,labyrinth,target,lower-left,2qBznRbX,orderA,1,labyrinth,6.63,high,m,7.84394250513347,7,mpi,04103
5805,43,mushroom,mushroom,target,lower-right,2qBznRbX,orderA,1,pilz,3.67,middle,m,7.84394250513347,7,mpi,04103
22911,44,orchid,shrub,dist1,upper-left,2qBznRbX,orderA,0,orchidee,9.76,high,m,7.84394250513347,7,mpi,04103
4538,45,zucchini,zucchini,target,upper-right,2qBznRbX,orderA,1,zucchini,5.95,middle,m,7.84394250513347,7,mpi,04103
4040,46,kayak,kayak,target,upper-left,2qBznRbX,orderA,1,kajak,8.82,high,m,7.84394250513347,7,mpi,04103
3061,47,lobster,lobster,target,upper-right,2qBznRbX,orderA,1,hummer,8,high,m,7.84394250513347,7,mpi,04103
9944,48,jaguar,jaguar,target,lower-right,2qBznRbX,orderA,1,jaguar,7.64,high,m,7.84394250513347,7,mpi,04103
5517,49,carnation,carnation,target,upper-right,2qBznRbX,orderA,1,nelke,7.82,high,m,7.84394250513347,7,mpi,04103
8578,50,satellite,satellite,target,upper-left,2qBznRbX,orderA,1,satellit,8.94,high,m,7.84394250513347,7,mpi,04103
4416,51,flounder,flounder,target,lower-right,2qBznRbX,orderA,1,flunder,6.95,high,m,7.84394250513347,7,mpi,04103
4161,52,cello,cello,target,lower-left,2qBznRbX,orderA,1,cello,8.67,high,m,7.84394250513347,7,mpi,04103
5111,1,squirrel,squirrel,target,lower-left,2WQeN9gW,orderA,1,eichhörnchen,2.6,low,f,7.737166324435318,7,mpi,04103
4663,2,cap,cap,target,upper-right,2WQeN9gW,orderA,1,mütze,1.95,low,f,7.737166324435318,7,mpi,04103
4684,3,door,door,target,lower-left,2WQeN9gW,orderA,1,tür,3.12,low,f,7.737166324435318,7,mpi,04103
4486,4,stairs,stairs,target,lower-right,2WQeN9gW,orderA,1,treppe,3.25,low,f,7.737166324435318,7,mpi,04103
4405,5,desk,desk,target,lower-left,2WQeN9gW,orderA,1,schreibtisch,3.2,low,f,7.737166324435318,7,mpi,04103
4893,6,strawberry,strawberry,target,upper-left,2WQeN9gW,orderA,1,erdbeere,3.47,low,f,7.737166324435318,7,mpi,04103
3920,7,eye,eye,target,upper-left,2WQeN9gW,orderA,1,auge,2.69,low,f,7.737166324435318,7,mpi,04103
3453,8,plane,plane,target,lower-left,2WQeN9gW,orderA,1,flugzeug,3.24,low,f,7.737166324435318,7,mpi,04103
3106,9,paintbrush,paintbrush,target,lower-left,2WQeN9gW,orderA,1,pinsel,3.43,low,f,7.737166324435318,7,mpi,04103
2942,10,telephone,telephone,target,upper-right,2WQeN9gW,orderA,1,telefon,3.53,middle,f,7.737166324435318,7,mpi,04103
2760,11,snake,snake,target,upper-left,2WQeN9gW,orderA,1,schlange,2,low,f,7.737166324435318,7,mpi,04103
3849,12,carrot,carrot,target,lower-right,2WQeN9gW,orderA,1,möhre,3.36,low,f,7.737166324435318,7,mpi,04103
2981,13,star,star,target,upper-left,2WQeN9gW,orderA,1,stern,3.29,low,f,7.737166324435318,7,mpi,04103
3043,14,scissors,scissors,target,upper-right,2WQeN9gW,orderA,1,schere,3.38,low,f,7.737166324435318,7,mpi,04103
2639,15,tiger,tiger,target,upper-right,2WQeN9gW,orderA,1,tiger,3.88,middle,f,7.737166324435318,7,mpi,04103
3256,16,bone,bone,target,lower-right,2WQeN9gW,orderA,1,knochen,4.64,middle,f,7.737166324435318,7,mpi,04103
3314,17,apple,apple,target,upper-left,2WQeN9gW,orderA,1,apfel,2.71,low,f,7.737166324435318,7,mpi,04103
2575,18,fish,fish,target,lower-left,2WQeN9gW,orderA,1,fisch,2.76,low,f,7.737166324435318,7,mpi,04103
2350,19,ant,ant,target,upper-right,2WQeN9gW,orderA,1,ameise,4.6,middle,f,7.737166324435318,7,mpi,04103
2885,20,belt,belt,target,lower-right,2WQeN9gW,orderA,1,gürtel,4.11,middle,f,7.737166324435318,7,mpi,04103
4248,21,fryingpan,fryingpan,target,upper-left,2WQeN9gW,orderA,1,pfanne,4.16,middle,f,7.737166324435318,7,mpi,04103
3629,22,zebra,zebra,target,upper-right,2WQeN9gW,orderA,1,zebra,3.65,middle,f,7.737166324435318,7,mpi,04103
3988,23,needle,needle,target,upper-left,2WQeN9gW,orderA,1,nadel,4.22,middle,f,7.737166324435318,7,mpi,04103
3859,24,bicycle,bicycle,target,upper-right,2WQeN9gW,orderA,1,fahrrad,3.8,middle,f,7.737166324435318,7,mpi,04103
4774,25,ladder,ladder,target,upper-right,2WQeN9gW,orderA,1,leiter,4.47,middle,f,7.737166324435318,7,mpi,04103
3586,26,battery,battery,target,lower-right,2WQeN9gW,orderA,1,batterie,5.94,middle,f,7.737166324435318,7,mpi,04103
3371,27,elk,elk,target,upper-left,2WQeN9gW,orderA,1,elch,6.28,high,f,7.737166324435318,7,mpi,04103
2964,28,choir,choir,target,upper-right,2WQeN9gW,orderA,1,chor,7.19,high,f,7.737166324435318,7,mpi,04103
2958,29,kangaroo,kangaroo,target,lower-left,2WQeN9gW,orderA,1,känguru,5.89,middle,f,7.737166324435318,7,mpi,04103
3116,30,ventilator,ventilator,target,upper-right,2WQeN9gW,orderA,1,ventilator,6.59,high,f,7.737166324435318,7,mpi,04103
5323,31,arugula,brusselsprouts,dist1,lower-left,2WQeN9gW,orderA,0,rucola,6.18,high,f,7.737166324435318,7,mpi,04103
3385,32,flag,flag,target,lower-right,2WQeN9gW,orderA,1,flagge,5.86,middle,f,7.737166324435318,7,mpi,04103
4623,33,giraffe,giraffe,target,upper-left,2WQeN9gW,orderA,1,giraffe,3.79,middle,f,7.737166324435318,7,mpi,04103
3353,34,palmtree,palmtree,target,lower-left,2WQeN9gW,orderA,1,palme,6.57,high,f,7.737166324435318,7,mpi,04103
2745,35,pineapple,pineapple,target,lower-right,2WQeN9gW,orderA,1,ananas,4.1,middle,f,7.737166324435318,7,mpi,04103
3830,36,ocean,ocean,target,upper-left,2WQeN9gW,orderA,1,ozean,6.46,high,f,7.737166324435318,7,mpi,04103
6087,37,gazelle,gazelle,target,lower-right,2WQeN9gW,orderA,1,gazelle,6.31,high,f,7.737166324435318,7,mpi,04103
2808,38,ruler,ruler,target,lower-left,2WQeN9gW,orderA,1,lineal,4.9,middle,f,7.737166324435318,7,mpi,04103
2691,39,badger,badger,target,lower-left,2WQeN9gW,orderA,1,dachs,6.17,high,f,7.737166324435318,7,mpi,04103
3511,40,chanterelle,chanterelle,target,upper-left,2WQeN9gW,orderA,1,pfifferling,7.13,high,f,7.737166324435318,7,mpi,04103
4334,41,ruin,ruin,target,lower-right,2WQeN9gW,orderA,1,ruine,6.21,high,f,7.737166324435318,7,mpi,04103
4580,42,labyrinth,labyrinth,target,lower-left,2WQeN9gW,orderA,1,labyrinth,6.63,high,f,7.737166324435318,7,mpi,04103
3063,43,mushroom,mushroom,target,lower-right,2WQeN9gW,orderA,1,pilz,3.67,middle,f,7.737166324435318,7,mpi,04103
7686,44,orchid,orchid,target,lower-left,2WQeN9gW,orderA,1,orchidee,9.76,high,f,7.737166324435318,7,mpi,04103
4177,45,zucchini,zucchini,target,upper-right,2WQeN9gW,orderA,1,zucchini,5.95,middle,f,7.737166324435318,7,mpi,04103
3130,46,kayak,kayak,target,upper-left,2WQeN9gW,orderA,1,kajak,8.82,high,f,7.737166324435318,7,mpi,04103
2762,47,lobster,lobster,target,upper-right,2WQeN9gW,orderA,1,hummer,8,high,f,7.737166324435318,7,mpi,04103
5001,48,jaguar,panther,dist1,lower-left,2WQeN9gW,orderA,0,jaguar,7.64,high,f,7.737166324435318,7,mpi,04103
9047,49,carnation,carnation,target,upper-right,2WQeN9gW,orderA,1,nelke,7.82,high,f,7.737166324435318,7,mpi,04103
24262,50,satellite,satellite,target,upper-left,2WQeN9gW,orderA,1,satellit,8.94,high,f,7.737166324435318,7,mpi,04103
15694,51,flounder,elderberry,dist2,upper-left,2WQeN9gW,orderA,0,flunder,6.95,high,f,7.737166324435318,7,mpi,04103
4677,52,cello,cello,target,lower-left,2WQeN9gW,orderA,1,cello,8.67,high,f,7.737166324435318,7,mpi,04103
6608,1,door,door,target,lower-left,3exQoXXu,orderB,1,tür,3.12,low,f,5.700205338809035,5,mpi,04103
3745,2,stairs,stairs,target,lower-right,3exQoXXu,orderB,1,treppe,3.25,low,f,5.700205338809035,5,mpi,04103
5043,3,eye,eye,target,upper-left,3exQoXXu,orderB,1,auge,2.69,low,f,5.700205338809035,5,mpi,04103
3711,4,desk,desk,target,lower-left,3exQoXXu,orderB,1,schreibtisch,3.2,low,f,5.700205338809035,5,mpi,04103
3578,5,star,star,target,upper-left,3exQoXXu,orderB,1,stern,3.29,low,f,5.700205338809035,5,mpi,04103
3109,6,squirrel,squirrel,target,lower-left,3exQoXXu,orderB,1,eichhörnchen,2.6,low,f,5.700205338809035,5,mpi,04103
2526,7,cap,cap,target,upper-right,3exQoXXu,orderB,1,mütze,1.95,low,f,5.700205338809035,5,mpi,04103
3527,8,telephone,telephone,target,upper-right,3exQoXXu,orderB,1,telefon,3.53,middle,f,5.700205338809035,5,mpi,04103
2494,9,strawberry,strawberry,target,upper-left,3exQoXXu,orderB,1,erdbeere,3.47,low,f,5.700205338809035,5,mpi,04103
2825,10,scissors,scissors,target,upper-right,3exQoXXu,orderB,1,schere,3.38,low,f,5.700205338809035,5,mpi,04103
2779,11,bone,bone,target,lower-right,3exQoXXu,orderB,1,knochen,4.64,middle,f,5.700205338809035,5,mpi,04103
2710,12,paintbrush,paintbrush,target,lower-left,3exQoXXu,orderB,1,pinsel,3.43,low,f,5.700205338809035,5,mpi,04103
3770,13,fryingpan,fryingpan,target,upper-left,3exQoXXu,orderB,1,pfanne,4.16,middle,f,5.700205338809035,5,mpi,04103
1828,14,carrot,carrot,target,lower-right,3exQoXXu,orderB,1,möhre,3.36,low,f,5.700205338809035,5,mpi,04103
3909,15,plane,plane,target,lower-left,3exQoXXu,orderB,1,flugzeug,3.24,low,f,5.700205338809035,5,mpi,04103
2961,16,tiger,tiger,target,upper-right,3exQoXXu,orderB,1,tiger,3.88,middle,f,5.700205338809035,5,mpi,04103
2395,17,snake,snake,target,upper-left,3exQoXXu,orderB,1,schlange,2,low,f,5.700205338809035,5,mpi,04103
2210,18,apple,apple,target,upper-left,3exQoXXu,orderB,1,apfel,2.71,low,f,5.700205338809035,5,mpi,04103
3026,19,battery,battery,target,lower-right,3exQoXXu,orderB,1,batterie,5.94,middle,f,5.700205338809035,5,mpi,04103
2577,20,flag,flag,target,lower-right,3exQoXXu,orderB,1,flagge,5.86,middle,f,5.700205338809035,5,mpi,04103
4273,21,ladder,ladder,target,upper-right,3exQoXXu,orderB,1,leiter,4.47,middle,f,5.700205338809035,5,mpi,04103
2608,22,fish,fish,target,lower-left,3exQoXXu,orderB,1,fisch,2.76,low,f,5.700205338809035,5,mpi,04103
3291,23,giraffe,giraffe,target,upper-left,3exQoXXu,orderB,1,giraffe,3.79,middle,f,5.700205338809035,5,mpi,04103
2909,24,ant,ant,target,upper-right,3exQoXXu,orderB,1,ameise,4.6,middle,f,5.700205338809035,5,mpi,04103
3324,25,bicycle,bicycle,target,upper-right,3exQoXXu,orderB,1,fahrrad,3.8,middle,f,5.700205338809035,5,mpi,04103
6508,26,ruin,ruin,target,lower-right,3exQoXXu,orderB,1,ruine,6.21,high,f,5.700205338809035,5,mpi,04103
11246,27,choir,choir,target,upper-right,3exQoXXu,orderB,1,chor,7.19,high,f,5.700205338809035,5,mpi,04103
4010,28,pineapple,pineapple,target,lower-right,3exQoXXu,orderB,1,ananas,4.1,middle,f,5.700205338809035,5,mpi,04103
2512,29,zebra,zebra,target,upper-right,3exQoXXu,orderB,1,zebra,3.65,middle,f,5.700205338809035,5,mpi,04103
1728,30,belt,belt,target,lower-right,3exQoXXu,orderB,1,gürtel,4.11,middle,f,5.700205338809035,5,mpi,04103
2061,31,mushroom,mushroom,target,lower-right,3exQoXXu,orderB,1,pilz,3.67,middle,f,5.700205338809035,5,mpi,04103
4678,32,elk,elk,target,upper-left,3exQoXXu,orderB,1,elch,6.28,high,f,5.700205338809035,5,mpi,04103
2811,33,needle,needle,target,upper-left,3exQoXXu,orderB,1,nadel,4.22,middle,f,5.700205338809035,5,mpi,04103
9626,34,arugula,dracula,dist2,upper-left,3exQoXXu,orderB,0,rucola,6.18,high,f,5.700205338809035,5,mpi,04103
2812,35,palmtree,palmtree,target,lower-left,3exQoXXu,orderB,1,palme,6.57,high,f,5.700205338809035,5,mpi,04103
2112,36,kangaroo,kangaroo,target,lower-left,3exQoXXu,orderB,1,känguru,5.89,middle,f,5.700205338809035,5,mpi,04103
3962,37,gazelle,gazelle,target,lower-right,3exQoXXu,orderB,1,gazelle,6.31,high,f,5.700205338809035,5,mpi,04103
7210,38,badger,badger,target,lower-left,3exQoXXu,orderB,1,dachs,6.17,high,f,5.700205338809035,5,mpi,04103
6727,39,chanterelle,chanterelle,target,upper-left,3exQoXXu,orderB,1,pfifferling,7.13,high,f,5.700205338809035,5,mpi,04103
16760,40,orchid,orchid,target,lower-left,3exQoXXu,orderB,1,orchidee,9.76,high,f,5.700205338809035,5,mpi,04103
3944,41,carnation,violets,dist1,lower-right,3exQoXXu,orderB,0,nelke,7.82,high,f,5.700205338809035,5,mpi,04103
3576,42,ventilator,ventilator,target,upper-right,3exQoXXu,orderB,1,ventilator,6.59,high,f,5.700205338809035,5,mpi,04103
2710,43,labyrinth,labyrinth,target,lower-left,3exQoXXu,orderB,1,labyrinth,6.63,high,f,5.700205338809035,5,mpi,04103
4277,44,ocean,ocean,target,upper-left,3exQoXXu,orderB,1,ozean,6.46,high,f,5.700205338809035,5,mpi,04103
4042,45,lobster,lobster,target,upper-right,3exQoXXu,orderB,1,hummer,8,high,f,5.700205338809035,5,mpi,04103
1927,46,cello,cello,target,lower-left,3exQoXXu,orderB,1,cello,8.67,high,f,5.700205338809035,5,mpi,04103
3496,47,kayak,kayak,target,upper-left,3exQoXXu,orderB,1,kajak,8.82,high,f,5.700205338809035,5,mpi,04103
2457,48,ruler,ruler,target,lower-left,3exQoXXu,orderB,1,lineal,4.9,middle,f,5.700205338809035,5,mpi,04103
4741,49,jaguar,panther,dist1,lower-left,3exQoXXu,orderB,0,jaguar,7.64,high,f,5.700205338809035,5,mpi,04103
2922,50,flounder,flounder,target,lower-right,3exQoXXu,orderB,1,flunder,6.95,high,f,5.700205338809035,5,mpi,04103
7515,51,satellite,satellite,target,upper-left,3exQoXXu,orderB,1,satellit,8.94,high,f,5.700205338809035,5,mpi,04103
4793,52,zucchini,zucchini,target,upper-right,3exQoXXu,orderB,1,zucchini,5.95,middle,f,5.700205338809035,5,mpi,04103
6884,1,door,door,target,lower-left,3F6fEdLi,orderB,1,tür,3.12,low,m,5.637234770704997,5,mpi,04103
3052,2,stairs,stairs,target,lower-right,3F6fEdLi,orderB,1,treppe,3.25,low,m,5.637234770704997,5,mpi,04103
3606,3,eye,eye,target,upper-left,3F6fEdLi,orderB,1,auge,2.69,low,m,5.637234770704997,5,mpi,04103
5324,4,desk,desk,target,lower-left,3F6fEdLi,orderB,1,schreibtisch,3.2,low,m,5.637234770704997,5,mpi,04103
2550,5,star,star,target,upper-left,3F6fEdLi,orderB,1,stern,3.29,low,m,5.637234770704997,5,mpi,04103
4031,6,squirrel,squirrel,target,lower-left,3F6fEdLi,orderB,1,eichhörnchen,2.6,low,m,5.637234770704997,5,mpi,04103
2166,7,cap,cap,target,upper-right,3F6fEdLi,orderB,1,mütze,1.95,low,m,5.637234770704997,5,mpi,04103
3158,8,telephone,telephone,target,upper-right,3F6fEdLi,orderB,1,telefon,3.53,middle,m,5.637234770704997,5,mpi,04103
1746,9,strawberry,strawberry,target,upper-left,3F6fEdLi,orderB,1,erdbeere,3.47,low,m,5.637234770704997,5,mpi,04103
1790,10,scissors,scissors,target,upper-right,3F6fEdLi,orderB,1,schere,3.38,low,m,5.637234770704997,5,mpi,04103
1783,11,bone,bone,target,lower-right,3F6fEdLi,orderB,1,knochen,4.64,middle,m,5.637234770704997,5,mpi,04103
2200,12,paintbrush,paintbrush,target,lower-left,3F6fEdLi,orderB,1,pinsel,3.43,low,m,5.637234770704997,5,mpi,04103
1872,13,fryingpan,fryingpan,target,upper-left,3F6fEdLi,orderB,1,pfanne,4.16,middle,m,5.637234770704997,5,mpi,04103
1949,14,carrot,carrot,target,lower-right,3F6fEdLi,orderB,1,möhre,3.36,low,m,5.637234770704997,5,mpi,04103
2019,15,plane,plane,target,lower-left,3F6fEdLi,orderB,1,flugzeug,3.24,low,m,5.637234770704997,5,mpi,04103
1584,16,tiger,tiger,target,upper-right,3F6fEdLi,orderB,1,tiger,3.88,middle,m,5.637234770704997,5,mpi,04103
1871,17,snake,snake,target,upper-left,3F6fEdLi,orderB,1,schlange,2,low,m,5.637234770704997,5,mpi,04103
1480,18,apple,apple,target,upper-left,3F6fEdLi,orderB,1,apfel,2.71,low,m,5.637234770704997,5,mpi,04103
3220,19,battery,battery,target,lower-right,3F6fEdLi,orderB,1,batterie,5.94,middle,m,5.637234770704997,5,mpi,04103
2195,20,flag,flag,target,lower-right,3F6fEdLi,orderB,1,flagge,5.86,middle,m,5.637234770704997,5,mpi,04103
2948,21,ladder,ladder,target,upper-right,3F6fEdLi,orderB,1,leiter,4.47,middle,m,5.637234770704997,5,mpi,04103
2518,22,fish,fish,target,lower-left,3F6fEdLi,orderB,1,fisch,2.76,low,m,5.637234770704997,5,mpi,04103
3174,23,giraffe,giraffe,target,upper-left,3F6fEdLi,orderB,1,giraffe,3.79,middle,m,5.637234770704997,5,mpi,04103
2389,24,ant,ant,target,upper-right,3F6fEdLi,orderB,1,ameise,4.6,middle,m,5.637234770704997,5,mpi,04103
3490,25,bicycle,bicycle,target,upper-right,3F6fEdLi,orderB,1,fahrrad,3.8,middle,m,5.637234770704997,5,mpi,04103
6723,26,ruin,ruin,target,lower-right,3F6fEdLi,orderB,1,ruine,6.21,high,m,5.637234770704997,5,mpi,04103
7242,27,choir,choir,target,upper-right,3F6fEdLi,orderB,1,chor,7.19,high,m,5.637234770704997,5,mpi,04103
1717,28,pineapple,pineapple,target,lower-right,3F6fEdLi,orderB,1,ananas,4.1,middle,m,5.637234770704997,5,mpi,04103
3281,29,zebra,zebra,target,upper-right,3F6fEdLi,orderB,1,zebra,3.65,middle,m,5.637234770704997,5,mpi,04103
3213,30,belt,belt,target,lower-right,3F6fEdLi,orderB,1,gürtel,4.11,middle,m,5.637234770704997,5,mpi,04103
2035,31,mushroom,mushroom,target,lower-right,3F6fEdLi,orderB,1,pilz,3.67,middle,m,5.637234770704997,5,mpi,04103
2371,32,elk,elk,target,upper-left,3F6fEdLi,orderB,1,elch,6.28,high,m,5.637234770704997,5,mpi,04103
2255,33,needle,needle,target,upper-left,3F6fEdLi,orderB,1,nadel,4.22,middle,m,5.637234770704997,5,mpi,04103
19844,34,arugula,dracula,dist2,upper-left,3F6fEdLi,orderB,0,rucola,6.18,high,m,5.637234770704997,5,mpi,04103
2482,35,palmtree,palmtree,target,lower-left,3F6fEdLi,orderB,1,palme,6.57,high,m,5.637234770704997,5,mpi,04103
4770,36,kangaroo,kangaroo,target,lower-left,3F6fEdLi,orderB,1,känguru,5.89,middle,m,5.637234770704997,5,mpi,04103
21657,37,gazelle,gazelle,target,lower-right,3F6fEdLi,orderB,1,gazelle,6.31,high,m,5.637234770704997,5,mpi,04103
3032,38,badger,badger,target,lower-left,3F6fEdLi,orderB,1,dachs,6.17,high,m,5.637234770704997,5,mpi,04103
10007,39,chanterelle,chanterelle,target,upper-left,3F6fEdLi,orderB,1,pfifferling,7.13,high,m,5.637234770704997,5,mpi,04103
13489,40,orchid,orchid,target,lower-left,3F6fEdLi,orderB,1,orchidee,9.76,high,m,5.637234770704997,5,mpi,04103
9944,41,carnation,violets,dist1,lower-right,3F6fEdLi,orderB,0,nelke,7.82,high,m,5.637234770704997,5,mpi,04103
3993,42,ventilator,ventilator,target,upper-right,3F6fEdLi,orderB,1,ventilator,6.59,high,m,5.637234770704997,5,mpi,04103
2418,43,labyrinth,labyrinth,target,lower-left,3F6fEdLi,orderB,1,labyrinth,6.63,high,m,5.637234770704997,5,mpi,04103
4552,44,ocean,ocean,target,upper-left,3F6fEdLi,orderB,1,ozean,6.46,high,m,5.637234770704997,5,mpi,04103
2299,45,lobster,lobster,target,upper-right,3F6fEdLi,orderB,1,hummer,8,high,m,5.637234770704997,5,mpi,04103
5325,46,cello,harp,dist1,lower-right,3F6fEdLi,orderB,0,cello,8.67,high,m,5.637234770704997,5,mpi,04103
8170,47,kayak,boomerang,dist3,lower-right,3F6fEdLi,orderB,0,kajak,8.82,high,m,5.637234770704997,5,mpi,04103
4971,48,ruler,ruler,target,lower-left,3F6fEdLi,orderB,1,lineal,4.9,middle,m,5.637234770704997,5,mpi,04103
6179,49,jaguar,panther,dist1,lower-left,3F6fEdLi,orderB,0,jaguar,7.64,high,m,5.637234770704997,5,mpi,04103
4305,50,flounder,elderberry,dist2,upper-left,3F6fEdLi,orderB,0,flunder,6.95,high,m,5.637234770704997,5,mpi,04103
30184,51,satellite,cell,dist3,lower-left,3F6fEdLi,orderB,0,satellit,8.94,high,m,5.637234770704997,5,mpi,04103
2630,52,zucchini,zucchini,target,upper-right,3F6fEdLi,orderB,1,zucchini,5.95,middle,m,5.637234770704997,5,mpi,04103
25152,1,squirrel,squirrel,target,lower-left,3mRNE1ED,orderA,1,eichhörnchen,2.6,low,m,6.5160848733744015,6,mpi,04103
10951,2,cap,cap,target,upper-right,3mRNE1ED,orderA,1,mütze,1.95,low,m,6.5160848733744015,6,mpi,04103
4117,3,door,door,target,lower-left,3mRNE1ED,orderA,1,tür,3.12,low,m,6.5160848733744015,6,mpi,04103
3697,4,stairs,stairs,target,lower-right,3mRNE1ED,orderA,1,treppe,3.25,low,m,6.5160848733744015,6,mpi,04103
8663,5,desk,desk,target,lower-left,3mRNE1ED,orderA,1,schreibtisch,3.2,low,m,6.5160848733744015,6,mpi,04103
3130,6,strawberry,strawberry,target,upper-left,3mRNE1ED,orderA,1,erdbeere,3.47,low,m,6.5160848733744015,6,mpi,04103
3615,7,eye,eye,target,upper-left,3mRNE1ED,orderA,1,auge,2.69,low,m,6.5160848733744015,6,mpi,04103
2636,8,plane,plane,target,lower-left,3mRNE1ED,orderA,1,flugzeug,3.24,low,m,6.5160848733744015,6,mpi,04103
2191,9,paintbrush,paintbrush,target,lower-left,3mRNE1ED,orderA,1,pinsel,3.43,low,m,6.5160848733744015,6,mpi,04103
2607,10,telephone,telephone,target,upper-right,3mRNE1ED,orderA,1,telefon,3.53,middle,m,6.5160848733744015,6,mpi,04103
2294,11,snake,snake,target,upper-left,3mRNE1ED,orderA,1,schlange,2,low,m,6.5160848733744015,6,mpi,04103
3102,12,carrot,carrot,target,lower-right,3mRNE1ED,orderA,1,möhre,3.36,low,m,6.5160848733744015,6,mpi,04103
2763,13,star,star,target,upper-left,3mRNE1ED,orderA,1,stern,3.29,low,m,6.5160848733744015,6,mpi,04103
2471,14,scissors,scissors,target,upper-right,3mRNE1ED,orderA,1,schere,3.38,low,m,6.5160848733744015,6,mpi,04103
2169,15,tiger,tiger,target,upper-right,3mRNE1ED,orderA,1,tiger,3.88,middle,m,6.5160848733744015,6,mpi,04103
2527,16,bone,bone,target,lower-right,3mRNE1ED,orderA,1,knochen,4.64,middle,m,6.5160848733744015,6,mpi,04103
2855,17,apple,apple,target,upper-left,3mRNE1ED,orderA,1,apfel,2.71,low,m,6.5160848733744015,6,mpi,04103
2544,18,fish,fish,target,lower-left,3mRNE1ED,orderA,1,fisch,2.76,low,m,6.5160848733744015,6,mpi,04103
3355,19,ant,ant,target,upper-right,3mRNE1ED,orderA,1,ameise,4.6,middle,m,6.5160848733744015,6,mpi,04103
2124,20,belt,belt,target,lower-right,3mRNE1ED,orderA,1,gürtel,4.11,middle,m,6.5160848733744015,6,mpi,04103
3410,21,fryingpan,fryingpan,target,upper-left,3mRNE1ED,orderA,1,pfanne,4.16,middle,m,6.5160848733744015,6,mpi,04103
2625,22,zebra,zebra,target,upper-right,3mRNE1ED,orderA,1,zebra,3.65,middle,m,6.5160848733744015,6,mpi,04103
3959,23,needle,needle,target,upper-left,3mRNE1ED,orderA,1,nadel,4.22,middle,m,6.5160848733744015,6,mpi,04103
14007,24,bicycle,bicycle,target,upper-right,3mRNE1ED,orderA,1,fahrrad,3.8,middle,m,6.5160848733744015,6,mpi,04103
12481,25,ladder,ladder,target,upper-right,3mRNE1ED,orderA,1,leiter,4.47,middle,m,6.5160848733744015,6,mpi,04103
7125,26,battery,battery,target,lower-right,3mRNE1ED,orderA,1,batterie,5.94,middle,m,6.5160848733744015,6,mpi,04103
3193,27,elk,elk,target,upper-left,3mRNE1ED,orderA,1,elch,6.28,high,m,6.5160848733744015,6,mpi,04103
26103,28,choir,choir,target,upper-right,3mRNE1ED,orderA,1,chor,7.19,high,m,6.5160848733744015,6,mpi,04103
3415,29,kangaroo,kangaroo,target,lower-left,3mRNE1ED,orderA,1,känguru,5.89,middle,m,6.5160848733744015,6,mpi,04103
7807,30,ventilator,ventilator,target,upper-right,3mRNE1ED,orderA,1,ventilator,6.59,high,m,6.5160848733744015,6,mpi,04103
17786,31,arugula,dracula,dist2,upper-left,3mRNE1ED,orderA,0,rucola,6.18,high,m,6.5160848733744015,6,mpi,04103
3870,32,flag,flag,target,lower-right,3mRNE1ED,orderA,1,flagge,5.86,middle,m,6.5160848733744015,6,mpi,04103
2861,33,giraffe,giraffe,target,upper-left,3mRNE1ED,orderA,1,giraffe,3.79,middle,m,6.5160848733744015,6,mpi,04103
13308,34,palmtree,drinkingstraws,dist2,lower-right,3mRNE1ED,orderA,0,palme,6.57,high,m,6.5160848733744015,6,mpi,04103
5248,35,pineapple,pineapple,target,lower-right,3mRNE1ED,orderA,1,ananas,4.1,middle,m,6.5160848733744015,6,mpi,04103
5317,36,ocean,ocean,target,upper-left,3mRNE1ED,orderA,1,ozean,6.46,high,m,6.5160848733744015,6,mpi,04103
3099,37,gazelle,gazelle,target,lower-right,3mRNE1ED,orderA,1,gazelle,6.31,high,m,6.5160848733744015,6,mpi,04103
3690,38,ruler,ruler,target,lower-left,3mRNE1ED,orderA,1,lineal,4.9,middle,m,6.5160848733744015,6,mpi,04103
4388,39,badger,badger,target,lower-left,3mRNE1ED,orderA,1,dachs,6.17,high,m,6.5160848733744015,6,mpi,04103
5644,40,chanterelle,chanterelle,target,upper-left,3mRNE1ED,orderA,1,pfifferling,7.13,high,m,6.5160848733744015,6,mpi,04103
6010,41,ruin,ruin,target,lower-right,3mRNE1ED,orderA,1,ruine,6.21,high,m,6.5160848733744015,6,mpi,04103
3639,42,labyrinth,labyrinth,target,lower-left,3mRNE1ED,orderA,1,labyrinth,6.63,high,m,6.5160848733744015,6,mpi,04103
3160,43,mushroom,mushroom,target,lower-right,3mRNE1ED,orderA,1,pilz,3.67,middle,m,6.5160848733744015,6,mpi,04103
6771,44,orchid,orchid,target,lower-left,3mRNE1ED,orderA,1,orchidee,9.76,high,m,6.5160848733744015,6,mpi,04103
3762,45,zucchini,zucchini,target,upper-right,3mRNE1ED,orderA,1,zucchini,5.95,middle,m,6.5160848733744015,6,mpi,04103
3924,46,kayak,kayak,target,upper-left,3mRNE1ED,orderA,1,kajak,8.82,high,m,6.5160848733744015,6,mpi,04103
10274,47,lobster,lobster,target,upper-right,3mRNE1ED,orderA,1,hummer,8,high,m,6.5160848733744015,6,mpi,04103
3702,48,jaguar,panther,dist1,lower-left,3mRNE1ED,orderA,0,jaguar,7.64,high,m,6.5160848733744015,6,mpi,04103
7533,49,carnation,carnation,target,upper-right,3mRNE1ED,orderA,1,nelke,7.82,high,m,6.5160848733744015,6,mpi,04103
6594,50,satellite,meteorid,dist2,lower-right,3mRNE1ED,orderA,0,satellit,8.94,high,m,6.5160848733744015,6,mpi,04103
5191,51,flounder,flounder,target,lower-right,3mRNE1ED,orderA,1,flunder,6.95,high,m,6.5160848733744015,6,mpi,04103
13446,52,cello,marshmallow,dist2,upper-right,3mRNE1ED,orderA,0,cello,8.67,high,m,6.5160848733744015,6,mpi,04103
5568,1,squirrel,squirrel,target,lower-left,3qeEa3WC,orderA,1,eichhörnchen,2.6,low,f,5.686516084873374,5,mpi,04103
5341,2,cap,cap,target,upper-right,3qeEa3WC,orderA,1,mütze,1.95,low,f,5.686516084873374,5,mpi,04103
4028,3,door,door,target,lower-left,3qeEa3WC,orderA,1,tür,3.12,low,f,5.686516084873374,5,mpi,04103
4051,4,stairs,stairs,target,lower-right,3qeEa3WC,orderA,1,treppe,3.25,low,f,5.686516084873374,5,mpi,04103
9237,5,desk,desk,target,lower-left,3qeEa3WC,orderA,1,schreibtisch,3.2,low,f,5.686516084873374,5,mpi,04103
3694,6,strawberry,strawberry,target,upper-left,3qeEa3WC,orderA,1,erdbeere,3.47,low,f,5.686516084873374,5,mpi,04103
2941,7,eye,eye,target,upper-left,3qeEa3WC,orderA,1,auge,2.69,low,f,5.686516084873374,5,mpi,04103
3200,8,plane,plane,target,lower-left,3qeEa3WC,orderA,1,flugzeug,3.24,low,f,5.686516084873374,5,mpi,04103
2881,9,paintbrush,paintbrush,target,lower-left,3qeEa3WC,orderA,1,pinsel,3.43,low,f,5.686516084873374,5,mpi,04103
3276,10,telephone,telephone,target,upper-right,3qeEa3WC,orderA,1,telefon,3.53,middle,f,5.686516084873374,5,mpi,04103
3503,11,snake,snake,target,upper-left,3qeEa3WC,orderA,1,schlange,2,low,f,5.686516084873374,5,mpi,04103
3602,12,carrot,carrot,target,lower-right,3qeEa3WC,orderA,1,möhre,3.36,low,f,5.686516084873374,5,mpi,04103
3298,13,star,star,target,upper-left,3qeEa3WC,orderA,1,stern,3.29,low,f,5.686516084873374,5,mpi,04103
3730,14,scissors,scissors,target,upper-right,3qeEa3WC,orderA,1,schere,3.38,low,f,5.686516084873374,5,mpi,04103
3916,15,tiger,tiger,target,upper-right,3qeEa3WC,orderA,1,tiger,3.88,middle,f,5.686516084873374,5,mpi,04103
3608,16,bone,bone,target,lower-right,3qeEa3WC,orderA,1,knochen,4.64,middle,f,5.686516084873374,5,mpi,04103
3113,17,apple,apple,target,upper-left,3qeEa3WC,orderA,1,apfel,2.71,low,f,5.686516084873374,5,mpi,04103
3005,18,fish,fish,target,lower-left,3qeEa3WC,orderA,1,fisch,2.76,low,f,5.686516084873374,5,mpi,04103
4297,19,ant,ant,target,upper-right,3qeEa3WC,orderA,1,ameise,4.6,middle,f,5.686516084873374,5,mpi,04103
3704,20,belt,belt,target,lower-right,3qeEa3WC,orderA,1,gürtel,4.11,middle,f,5.686516084873374,5,mpi,04103
4555,21,fryingpan,fryingpan,target,upper-left,3qeEa3WC,orderA,1,pfanne,4.16,middle,f,5.686516084873374,5,mpi,04103
4346,22,zebra,zebra,target,upper-right,3qeEa3WC,orderA,1,zebra,3.65,middle,f,5.686516084873374,5,mpi,04103
5267,23,needle,needle,target,upper-left,3qeEa3WC,orderA,1,nadel,4.22,middle,f,5.686516084873374,5,mpi,04103
5342,24,bicycle,bicycle,target,upper-right,3qeEa3WC,orderA,1,fahrrad,3.8,middle,f,5.686516084873374,5,mpi,04103
4657,25,ladder,ladder,target,upper-right,3qeEa3WC,orderA,1,leiter,4.47,middle,f,5.686516084873374,5,mpi,04103
5177,26,battery,battery,target,lower-right,3qeEa3WC,orderA,1,batterie,5.94,middle,f,5.686516084873374,5,mpi,04103
4205,27,elk,elk,target,upper-left,3qeEa3WC,orderA,1,elch,6.28,high,f,5.686516084873374,5,mpi,04103
6514,28,choir,orchestra,dist1,lower-right,3qeEa3WC,orderA,0,chor,7.19,high,f,5.686516084873374,5,mpi,04103
3679,29,kangaroo,kangaroo,target,lower-left,3qeEa3WC,orderA,1,känguru,5.89,middle,f,5.686516084873374,5,mpi,04103
4163,30,ventilator,ventilator,target,upper-right,3qeEa3WC,orderA,1,ventilator,6.59,high,f,5.686516084873374,5,mpi,04103
13466,31,arugula,arugula,target,lower-right,3qeEa3WC,orderA,1,rucola,6.18,high,f,5.686516084873374,5,mpi,04103
3787,32,flag,flag,target,lower-right,3qeEa3WC,orderA,1,flagge,5.86,middle,f,5.686516084873374,5,mpi,04103
4525,33,giraffe,giraffe,target,upper-left,3qeEa3WC,orderA,1,giraffe,3.79,middle,f,5.686516084873374,5,mpi,04103
11540,34,palmtree,palmtree,target,lower-left,3qeEa3WC,orderA,1,palme,6.57,high,f,5.686516084873374,5,mpi,04103
3174,35,pineapple,pineapple,target,lower-right,3qeEa3WC,orderA,1,ananas,4.1,middle,f,5.686516084873374,5,mpi,04103
3806,36,ocean,ocean,target,upper-left,3qeEa3WC,orderA,1,ozean,6.46,high,f,5.686516084873374,5,mpi,04103
5452,37,gazelle,gazelle,target,lower-right,3qeEa3WC,orderA,1,gazelle,6.31,high,f,5.686516084873374,5,mpi,04103
3679,38,ruler,ruler,target,lower-left,3qeEa3WC,orderA,1,lineal,4.9,middle,f,5.686516084873374,5,mpi,04103
3654,39,badger,badger,target,lower-left,3qeEa3WC,orderA,1,dachs,6.17,high,f,5.686516084873374,5,mpi,04103
7142,40,chanterelle,chanterelle,target,upper-left,3qeEa3WC,orderA,1,pfifferling,7.13,high,f,5.686516084873374,5,mpi,04103
10886,41,ruin,fortress,dist1,upper-right,3qeEa3WC,orderA,0,ruine,6.21,high,f,5.686516084873374,5,mpi,04103
4830,42,labyrinth,labyrinth,target,lower-left,3qeEa3WC,orderA,1,labyrinth,6.63,high,f,5.686516084873374,5,mpi,04103
3424,43,mushroom,mushroom,target,lower-right,3qeEa3WC,orderA,1,pilz,3.67,middle,f,5.686516084873374,5,mpi,04103
4892,44,orchid,orchid,target,lower-left,3qeEa3WC,orderA,1,orchidee,9.76,high,f,5.686516084873374,5,mpi,04103
4146,45,zucchini,zucchini,target,upper-right,3qeEa3WC,orderA,1,zucchini,5.95,middle,f,5.686516084873374,5,mpi,04103
4698,46,kayak,boomerang,dist3,lower-right,3qeEa3WC,orderA,0,kajak,8.82,high,f,5.686516084873374,5,mpi,04103
5626,47,lobster,lobster,target,upper-right,3qeEa3WC,orderA,1,hummer,8,high,f,5.686516084873374,5,mpi,04103
4159,48,jaguar,jaguar,target,lower-right,3qeEa3WC,orderA,1,jaguar,7.64,high,f,5.686516084873374,5,mpi,04103
3723,49,carnation,violets,dist1,lower-right,3qeEa3WC,orderA,0,nelke,7.82,high,f,5.686516084873374,5,mpi,04103
4979,50,satellite,meteorid,dist2,lower-right,3qeEa3WC,orderA,0,satellit,8.94,high,f,5.686516084873374,5,mpi,04103
4205,51,flounder,flounder,target,lower-right,3qeEa3WC,orderA,1,flunder,6.95,high,f,5.686516084873374,5,mpi,04103
3684,52,cello,harp,dist1,lower-right,3qeEa3WC,orderA,0,cello,8.67,high,f,5.686516084873374,5,mpi,04103
4019,1,door,door,target,lower-left,41AyZAfu,orderB,1,tür,3.12,low,m,3.36208076659822,3,mpi,04103
3336,2,stairs,stairs,target,lower-right,41AyZAfu,orderB,1,treppe,3.25,low,m,3.36208076659822,3,mpi,04103
4099,3,eye,eye,target,upper-left,41AyZAfu,orderB,1,auge,2.69,low,m,3.36208076659822,3,mpi,04103
7337,4,desk,desk,target,lower-left,41AyZAfu,orderB,1,schreibtisch,3.2,low,m,3.36208076659822,3,mpi,04103
6712,5,star,star,target,upper-left,41AyZAfu,orderB,1,stern,3.29,low,m,3.36208076659822,3,mpi,04103
2883,6,squirrel,squirrel,target,lower-left,41AyZAfu,orderB,1,eichhörnchen,2.6,low,m,3.36208076659822,3,mpi,04103
2631,7,cap,cap,target,upper-right,41AyZAfu,orderB,1,mütze,1.95,low,m,3.36208076659822,3,mpi,04103
2072,8,telephone,telephone,target,upper-right,41AyZAfu,orderB,1,telefon,3.53,middle,m,3.36208076659822,3,mpi,04103
2197,9,strawberry,strawberry,target,upper-left,41AyZAfu,orderB,1,erdbeere,3.47,low,m,3.36208076659822,3,mpi,04103
3483,10,scissors,scissors,target,upper-right,41AyZAfu,orderB,1,schere,3.38,low,m,3.36208076659822,3,mpi,04103
3063,11,bone,bone,target,lower-right,41AyZAfu,orderB,1,knochen,4.64,middle,m,3.36208076659822,3,mpi,04103
2687,12,paintbrush,paintbrush,target,lower-left,41AyZAfu,orderB,1,pinsel,3.43,low,m,3.36208076659822,3,mpi,04103
2258,13,fryingpan,fryingpan,target,upper-left,41AyZAfu,orderB,1,pfanne,4.16,middle,m,3.36208076659822,3,mpi,04103
2837,14,carrot,carrot,target,lower-right,41AyZAfu,orderB,1,möhre,3.36,low,m,3.36208076659822,3,mpi,04103
2352,15,plane,plane,target,lower-left,41AyZAfu,orderB,1,flugzeug,3.24,low,m,3.36208076659822,3,mpi,04103
1897,16,tiger,tiger,target,upper-right,41AyZAfu,orderB,1,tiger,3.88,middle,m,3.36208076659822,3,mpi,04103
2168,17,snake,snake,target,upper-left,41AyZAfu,orderB,1,schlange,2,low,m,3.36208076659822,3,mpi,04103
1937,18,apple,apple,target,upper-left,41AyZAfu,orderB,1,apfel,2.71,low,m,3.36208076659822,3,mpi,04103
8692,19,battery,battery,target,lower-right,41AyZAfu,orderB,1,batterie,5.94,middle,m,3.36208076659822,3,mpi,04103
9929,20,flag,horse,dist2,upper-left,41AyZAfu,orderB,0,flagge,5.86,middle,m,3.36208076659822,3,mpi,04103
4433,21,ladder,ladder,target,upper-right,41AyZAfu,orderB,1,leiter,4.47,middle,m,3.36208076659822,3,mpi,04103
3531,22,fish,fish,target,lower-left,41AyZAfu,orderB,1,fisch,2.76,low,m,3.36208076659822,3,mpi,04103
3297,23,giraffe,giraffe,target,upper-left,41AyZAfu,orderB,1,giraffe,3.79,middle,m,3.36208076659822,3,mpi,04103
15757,24,ant,bird,dist1,upper-left,41AyZAfu,orderB,0,ameise,4.6,middle,m,3.36208076659822,3,mpi,04103
14321,25,bicycle,pen,dist2,lower-right,41AyZAfu,orderB,0,fahrrad,3.8,middle,m,3.36208076659822,3,mpi,04103
25260,26,ruin,railtracks,dist2,lower-left,41AyZAfu,orderB,0,ruine,6.21,high,m,3.36208076659822,3,mpi,04103
35589,27,choir,orchestra,dist1,lower-right,41AyZAfu,orderB,0,chor,7.19,high,m,3.36208076659822,3,mpi,04103
14383,28,pineapple,pineapple,target,lower-right,41AyZAfu,orderB,1,ananas,4.1,middle,m,3.36208076659822,3,mpi,04103
4219,29,zebra,zebra,target,upper-right,41AyZAfu,orderB,1,zebra,3.65,middle,m,3.36208076659822,3,mpi,04103
3645,30,belt,belt,target,lower-right,41AyZAfu,orderB,1,gürtel,4.11,middle,m,3.36208076659822,3,mpi,04103
14826,31,mushroom,mushroom,target,lower-right,41AyZAfu,orderB,1,pilz,3.67,middle,m,3.36208076659822,3,mpi,04103
59112,32,elk,elk,target,upper-left,41AyZAfu,orderB,1,elch,6.28,high,m,3.36208076659822,3,mpi,04103
21721,33,needle,needle,target,upper-left,41AyZAfu,orderB,1,nadel,4.22,middle,m,3.36208076659822,3,mpi,04103
11365,34,arugula,dracula,dist2,upper-left,41AyZAfu,orderB,0,rucola,6.18,high,m,3.36208076659822,3,mpi,04103
11911,35,palmtree,cup,dist3,upper-left,41AyZAfu,orderB,0,palme,6.57,high,m,3.36208076659822,3,mpi,04103
3934,36,kangaroo,kangaroo,target,lower-left,41AyZAfu,orderB,1,känguru,5.89,middle,m,3.36208076659822,3,mpi,04103
40298,37,gazelle,gazelle,target,lower-right,41AyZAfu,orderB,1,gazelle,6.31,high,m,3.36208076659822,3,mpi,04103
4954,38,badger,badger,target,lower-left,41AyZAfu,orderB,1,dachs,6.17,high,m,3.36208076659822,3,mpi,04103
17881,39,chanterelle,chanterelle,target,upper-left,41AyZAfu,orderB,1,pfifferling,7.13,high,m,3.36208076659822,3,mpi,04103
26439,40,orchid,shrub,dist1,upper-left,41AyZAfu,orderB,0,orchidee,9.76,high,m,3.36208076659822,3,mpi,04103
4923,41,carnation,tents,dist2,lower-left,41AyZAfu,orderB,0,nelke,7.82,high,m,3.36208076659822,3,mpi,04103
13324,42,ventilator,ventilator,target,upper-right,41AyZAfu,orderB,1,ventilator,6.59,high,m,3.36208076659822,3,mpi,04103
11065,43,labyrinth,rollercoaster,dist1,upper-left,41AyZAfu,orderB,0,labyrinth,6.63,high,m,3.36208076659822,3,mpi,04103
45121,44,ocean,pelican,dist2,lower-right,41AyZAfu,orderB,0,ozean,6.46,high,m,3.36208076659822,3,mpi,04103
12087,45,lobster,lobster,target,upper-right,41AyZAfu,orderB,1,hummer,8,high,m,3.36208076659822,3,mpi,04103
2916,46,cello,harp,dist1,lower-right,41AyZAfu,orderB,0,cello,8.67,high,m,3.36208076659822,3,mpi,04103
5509,47,kayak,boomerang,dist3,lower-right,41AyZAfu,orderB,0,kajak,8.82,high,m,3.36208076659822,3,mpi,04103
3418,48,ruler,ruler,target,lower-left,41AyZAfu,orderB,1,lineal,4.9,middle,m,3.36208076659822,3,mpi,04103
6615,49,jaguar,panther,dist1,lower-left,41AyZAfu,orderB,0,jaguar,7.64,high,m,3.36208076659822,3,mpi,04103
3588,50,flounder,flounder,target,lower-right,41AyZAfu,orderB,1,flunder,6.95,high,m,3.36208076659822,3,mpi,04103
2898,51,satellite,cell,dist3,lower-left,41AyZAfu,orderB,0,satellit,8.94,high,m,3.36208076659822,3,mpi,04103
10813,52,zucchini,zucchini,target,upper-right,41AyZAfu,orderB,1,zucchini,5.95,middle,m,3.36208076659822,3,mpi,04103
3378,1,door,door,target,lower-left,479FefBH,orderB,1,tür,3.12,low,m,5.4428473648186175,5,mpi,04103
2725,2,stairs,stairs,target,lower-right,479FefBH,orderB,1,treppe,3.25,low,m,5.4428473648186175,5,mpi,04103
2824,3,eye,eye,target,upper-left,479FefBH,orderB,1,auge,2.69,low,m,5.4428473648186175,5,mpi,04103
3129,4,desk,desk,target,lower-left,479FefBH,orderB,1,schreibtisch,3.2,low,m,5.4428473648186175,5,mpi,04103
2065,5,star,star,target,upper-left,479FefBH,orderB,1,stern,3.29,low,m,5.4428473648186175,5,mpi,04103
1973,6,squirrel,squirrel,target,lower-left,479FefBH,orderB,1,eichhörnchen,2.6,low,m,5.4428473648186175,5,mpi,04103
4643,7,cap,cap,target,upper-right,479FefBH,orderB,1,mütze,1.95,low,m,5.4428473648186175,5,mpi,04103
2702,8,telephone,telephone,target,upper-right,479FefBH,orderB,1,telefon,3.53,middle,m,5.4428473648186175,5,mpi,04103
1856,9,strawberry,strawberry,target,upper-left,479FefBH,orderB,1,erdbeere,3.47,low,m,5.4428473648186175,5,mpi,04103
2025,10,scissors,scissors,target,upper-right,479FefBH,orderB,1,schere,3.38,low,m,5.4428473648186175,5,mpi,04103
2323,11,bone,bone,target,lower-right,479FefBH,orderB,1,knochen,4.64,middle,m,5.4428473648186175,5,mpi,04103
1900,12,paintbrush,paintbrush,target,lower-left,479FefBH,orderB,1,pinsel,3.43,low,m,5.4428473648186175,5,mpi,04103
3554,13,fryingpan,fryingpan,target,upper-left,479FefBH,orderB,1,pfanne,4.16,middle,m,5.4428473648186175,5,mpi,04103
2293,14,carrot,carrot,target,lower-right,479FefBH,orderB,1,möhre,3.36,low,m,5.4428473648186175,5,mpi,04103
2477,15,plane,plane,target,lower-left,479FefBH,orderB,1,flugzeug,3.24,low,m,5.4428473648186175,5,mpi,04103
2036,16,tiger,tiger,target,upper-right,479FefBH,orderB,1,tiger,3.88,middle,m,5.4428473648186175,5,mpi,04103
2052,17,snake,snake,target,upper-left,479FefBH,orderB,1,schlange,2,low,m,5.4428473648186175,5,mpi,04103
1797,18,apple,apple,target,upper-left,479FefBH,orderB,1,apfel,2.71,low,m,5.4428473648186175,5,mpi,04103
2525,19,battery,battery,target,lower-right,479FefBH,orderB,1,batterie,5.94,middle,m,5.4428473648186175,5,mpi,04103
3114,20,flag,flag,target,lower-right,479FefBH,orderB,1,flagge,5.86,middle,m,5.4428473648186175,5,mpi,04103
2894,21,ladder,ladder,target,upper-right,479FefBH,orderB,1,leiter,4.47,middle,m,5.4428473648186175,5,mpi,04103
2867,22,fish,fish,target,lower-left,479FefBH,orderB,1,fisch,2.76,low,m,5.4428473648186175,5,mpi,04103
3421,23,giraffe,giraffe,target,upper-left,479FefBH,orderB,1,giraffe,3.79,middle,m,5.4428473648186175,5,mpi,04103
4557,24,ant,ant,target,upper-right,479FefBH,orderB,1,ameise,4.6,middle,m,5.4428473648186175,5,mpi,04103
2878,25,bicycle,bicycle,target,upper-right,479FefBH,orderB,1,fahrrad,3.8,middle,m,5.4428473648186175,5,mpi,04103
18042,26,ruin,fortress,dist1,upper-right,479FefBH,orderB,0,ruine,6.21,high,m,5.4428473648186175,5,mpi,04103
8750,27,choir,orchestra,dist1,lower-right,479FefBH,orderB,0,chor,7.19,high,m,5.4428473648186175,5,mpi,04103
1860,28,pineapple,pineapple,target,lower-right,479FefBH,orderB,1,ananas,4.1,middle,m,5.4428473648186175,5,mpi,04103
2148,29,zebra,zebra,target,upper-right,479FefBH,orderB,1,zebra,3.65,middle,m,5.4428473648186175,5,mpi,04103
2953,30,belt,belt,target,lower-right,479FefBH,orderB,1,gürtel,4.11,middle,m,5.4428473648186175,5,mpi,04103
2283,31,mushroom,mushroom,target,lower-right,479FefBH,orderB,1,pilz,3.67,middle,m,5.4428473648186175,5,mpi,04103
4049,32,elk,elk,target,upper-left,479FefBH,orderB,1,elch,6.28,high,m,5.4428473648186175,5,mpi,04103
2207,33,needle,needle,target,upper-left,479FefBH,orderB,1,nadel,4.22,middle,m,5.4428473648186175,5,mpi,04103
3196,34,arugula,brusselsprouts,dist1,lower-left,479FefBH,orderB,0,rucola,6.18,high,m,5.4428473648186175,5,mpi,04103
2109,35,palmtree,palmtree,target,lower-left,479FefBH,orderB,1,palme,6.57,high,m,5.4428473648186175,5,mpi,04103
1713,36,kangaroo,kangaroo,target,lower-left,479FefBH,orderB,1,känguru,5.89,middle,m,5.4428473648186175,5,mpi,04103
2632,37,gazelle,dragonfly,dist2,upper-left,479FefBH,orderB,0,gazelle,6.31,high,m,5.4428473648186175,5,mpi,04103
2747,38,badger,badger,target,lower-left,479FefBH,orderB,1,dachs,6.17,high,m,5.4428473648186175,5,mpi,04103
12579,39,chanterelle,chanterelle,target,upper-left,479FefBH,orderB,1,pfifferling,7.13,high,m,5.4428473648186175,5,mpi,04103
7248,40,orchid,shrub,dist1,upper-left,479FefBH,orderB,0,orchidee,9.76,high,m,5.4428473648186175,5,mpi,04103
8586,41,carnation,tents,dist2,lower-left,479FefBH,orderB,0,nelke,7.82,high,m,5.4428473648186175,5,mpi,04103
3325,42,ventilator,ventilator,target,upper-right,479FefBH,orderB,1,ventilator,6.59,high,m,5.4428473648186175,5,mpi,04103
2233,43,labyrinth,labyrinth,target,lower-left,479FefBH,orderB,1,labyrinth,6.63,high,m,5.4428473648186175,5,mpi,04103
3007,44,ocean,ocean,target,upper-left,479FefBH,orderB,1,ozean,6.46,high,m,5.4428473648186175,5,mpi,04103
3740,45,lobster,crab,dist1,lower-right,479FefBH,orderB,0,hummer,8,high,m,5.4428473648186175,5,mpi,04103
4183,46,cello,landingbridge,dist3,upper-left,479FefBH,orderB,0,cello,8.67,high,m,5.4428473648186175,5,mpi,04103
2578,47,kayak,sailingboat,dist1,lower-left,479FefBH,orderB,0,kajak,8.82,high,m,5.4428473648186175,5,mpi,04103
2779,48,ruler,ruler,target,lower-left,479FefBH,orderB,1,lineal,4.9,middle,m,5.4428473648186175,5,mpi,04103
3108,49,jaguar,panther,dist1,lower-left,479FefBH,orderB,0,jaguar,7.64,high,m,5.4428473648186175,5,mpi,04103
2459,50,flounder,orca,dist1,lower-left,479FefBH,orderB,0,flunder,6.95,high,m,5.4428473648186175,5,mpi,04103
1986,51,satellite,rocket,dist1,upper-right,479FefBH,orderB,0,satellit,8.94,high,m,5.4428473648186175,5,mpi,04103
2401,52,zucchini,broccoli,dist1,lower-right,479FefBH,orderB,0,zucchini,5.95,middle,m,5.4428473648186175,5,mpi,04103
19254,1,door,door,target,lower-left,4bgeoaou,orderB,1,tür,3.12,low,m,3.5455167693360714,3,mpi,04103
15943,2,stairs,stairs,target,lower-right,4bgeoaou,orderB,1,treppe,3.25,low,m,3.5455167693360714,3,mpi,04103
15092,3,eye,eye,target,upper-left,4bgeoaou,orderB,1,auge,2.69,low,m,3.5455167693360714,3,mpi,04103
21658,4,desk,desk,target,lower-left,4bgeoaou,orderB,1,schreibtisch,3.2,low,m,3.5455167693360714,3,mpi,04103
13322,5,star,star,target,upper-left,4bgeoaou,orderB,1,stern,3.29,low,m,3.5455167693360714,3,mpi,04103
3690,6,squirrel,squirrel,target,lower-left,4bgeoaou,orderB,1,eichhörnchen,2.6,low,m,3.5455167693360714,3,mpi,04103
5076,7,cap,cap,target,upper-right,4bgeoaou,orderB,1,mütze,1.95,low,m,3.5455167693360714,3,mpi,04103
4058,8,telephone,telephone,target,upper-right,4bgeoaou,orderB,1,telefon,3.53,middle,m,3.5455167693360714,3,mpi,04103
2659,9,strawberry,strawberry,target,upper-left,4bgeoaou,orderB,1,erdbeere,3.47,low,m,3.5455167693360714,3,mpi,04103
3236,10,scissors,scissors,target,upper-right,4bgeoaou,orderB,1,schere,3.38,low,m,3.5455167693360714,3,mpi,04103
3408,11,bone,bone,target,lower-right,4bgeoaou,orderB,1,knochen,4.64,middle,m,3.5455167693360714,3,mpi,04103
4962,12,paintbrush,paintbrush,target,lower-left,4bgeoaou,orderB,1,pinsel,3.43,low,m,3.5455167693360714,3,mpi,04103
3394,13,fryingpan,fryingpan,target,upper-left,4bgeoaou,orderB,1,pfanne,4.16,middle,m,3.5455167693360714,3,mpi,04103
9087,14,carrot,carrot,target,lower-right,4bgeoaou,orderB,1,möhre,3.36,low,m,3.5455167693360714,3,mpi,04103
3061,15,plane,plane,target,lower-left,4bgeoaou,orderB,1,flugzeug,3.24,low,m,3.5455167693360714,3,mpi,04103
3558,16,tiger,tiger,target,upper-right,4bgeoaou,orderB,1,tiger,3.88,middle,m,3.5455167693360714,3,mpi,04103
5126,17,snake,snake,target,upper-left,4bgeoaou,orderB,1,schlange,2,low,m,3.5455167693360714,3,mpi,04103
2742,18,apple,apple,target,upper-left,4bgeoaou,orderB,1,apfel,2.71,low,m,3.5455167693360714,3,mpi,04103
4189,19,battery,battery,target,lower-right,4bgeoaou,orderB,1,batterie,5.94,middle,m,3.5455167693360714,3,mpi,04103
3893,20,flag,flag,target,lower-right,4bgeoaou,orderB,1,flagge,5.86,middle,m,3.5455167693360714,3,mpi,04103
5075,21,ladder,ladder,target,upper-right,4bgeoaou,orderB,1,leiter,4.47,middle,m,3.5455167693360714,3,mpi,04103
3609,22,fish,fish,target,lower-left,4bgeoaou,orderB,1,fisch,2.76,low,m,3.5455167693360714,3,mpi,04103
3559,23,giraffe,giraffe,target,upper-left,4bgeoaou,orderB,1,giraffe,3.79,middle,m,3.5455167693360714,3,mpi,04103
3592,24,ant,ant,target,upper-right,4bgeoaou,orderB,1,ameise,4.6,middle,m,3.5455167693360714,3,mpi,04103
3691,25,bicycle,bicycle,target,upper-right,4bgeoaou,orderB,1,fahrrad,3.8,middle,m,3.5455167693360714,3,mpi,04103
12426,26,ruin,ruin,target,lower-right,4bgeoaou,orderB,1,ruine,6.21,high,m,3.5455167693360714,3,mpi,04103
11540,27,choir,pipe,dist2,upper-left,4bgeoaou,orderB,0,chor,7.19,high,m,3.5455167693360714,3,mpi,04103
3793,28,pineapple,pineapple,target,lower-right,4bgeoaou,orderB,1,ananas,4.1,middle,m,3.5455167693360714,3,mpi,04103
3505,29,zebra,zebra,target,upper-right,4bgeoaou,orderB,1,zebra,3.65,middle,m,3.5455167693360714,3,mpi,04103
3344,30,belt,belt,target,lower-right,4bgeoaou,orderB,1,gürtel,4.11,middle,m,3.5455167693360714,3,mpi,04103
7960,31,mushroom,mushroom,target,lower-right,4bgeoaou,orderB,1,pilz,3.67,middle,m,3.5455167693360714,3,mpi,04103
13510,32,elk,elk,target,upper-left,4bgeoaou,orderB,1,elch,6.28,high,m,3.5455167693360714,3,mpi,04103
6908,33,needle,needle,target,upper-left,4bgeoaou,orderB,1,nadel,4.22,middle,m,3.5455167693360714,3,mpi,04103
15758,34,arugula,brusselsprouts,dist1,lower-left,4bgeoaou,orderB,0,rucola,6.18,high,m,3.5455167693360714,3,mpi,04103
5387,35,palmtree,palmtree,target,lower-left,4bgeoaou,orderB,1,palme,6.57,high,m,3.5455167693360714,3,mpi,04103
2889,36,kangaroo,kangaroo,target,lower-left,4bgeoaou,orderB,1,känguru,5.89,middle,m,3.5455167693360714,3,mpi,04103
6043,37,gazelle,deer,dist1,upper-right,4bgeoaou,orderB,0,gazelle,6.31,high,m,3.5455167693360714,3,mpi,04103
3622,38,badger,badger,target,lower-left,4bgeoaou,orderB,1,dachs,6.17,high,m,3.5455167693360714,3,mpi,04103
16423,39,chanterelle,diamond,dist3,upper-right,4bgeoaou,orderB,0,pfifferling,7.13,high,m,3.5455167693360714,3,mpi,04103
6624,40,orchid,shrub,dist1,upper-left,4bgeoaou,orderB,0,orchidee,9.76,high,m,3.5455167693360714,3,mpi,04103
7493,41,carnation,tents,dist2,lower-left,4bgeoaou,orderB,0,nelke,7.82,high,m,3.5455167693360714,3,mpi,04103
152552,42,ventilator,ventilator,target,upper-right,4bgeoaou,orderB,1,ventilator,6.59,high,m,3.5455167693360714,3,mpi,04103
19221,43,labyrinth,whirlwind,dist2,lower-right,4bgeoaou,orderB,0,labyrinth,6.63,high,m,3.5455167693360714,3,mpi,04103
7020,44,ocean,ocean,target,upper-left,4bgeoaou,orderB,1,ozean,6.46,high,m,3.5455167693360714,3,mpi,04103
6423,45,lobster,lobster,target,upper-right,4bgeoaou,orderB,1,hummer,8,high,m,3.5455167693360714,3,mpi,04103
7343,46,cello,marshmallow,dist2,upper-right,4bgeoaou,orderB,0,cello,8.67,high,m,3.5455167693360714,3,mpi,04103
10055,47,kayak,boomerang,dist3,lower-right,4bgeoaou,orderB,0,kajak,8.82,high,m,3.5455167693360714,3,mpi,04103
22424,48,ruler,ruler,target,lower-left,4bgeoaou,orderB,1,lineal,4.9,middle,m,3.5455167693360714,3,mpi,04103
5821,49,jaguar,jaguar,target,lower-right,4bgeoaou,orderB,1,jaguar,7.64,high,m,3.5455167693360714,3,mpi,04103
14971,50,flounder,elderberry,dist2,upper-left,4bgeoaou,orderB,0,flunder,6.95,high,m,3.5455167693360714,3,mpi,04103
6206,51,satellite,satellite,target,upper-left,4bgeoaou,orderB,1,satellit,8.94,high,m,3.5455167693360714,3,mpi,04103
7021,52,zucchini,zucchini,target,upper-right,4bgeoaou,orderB,1,zucchini,5.95,middle,m,3.5455167693360714,3,mpi,04103
9974,1,door,door,target,lower-left,4caxx1Za,orderB,1,tür,3.12,low,f,5.546885694729637,5,mpi,04103
5279,2,stairs,stairs,target,lower-right,4caxx1Za,orderB,1,treppe,3.25,low,f,5.546885694729637,5,mpi,04103
5526,3,eye,eye,target,upper-left,4caxx1Za,orderB,1,auge,2.69,low,f,5.546885694729637,5,mpi,04103
23318,4,desk,desk,target,lower-left,4caxx1Za,orderB,1,schreibtisch,3.2,low,f,5.546885694729637,5,mpi,04103
7167,5,star,star,target,upper-left,4caxx1Za,orderB,1,stern,3.29,low,f,5.546885694729637,5,mpi,04103
2667,6,squirrel,squirrel,target,lower-left,4caxx1Za,orderB,1,eichhörnchen,2.6,low,f,5.546885694729637,5,mpi,04103
6574,7,cap,cap,target,upper-right,4caxx1Za,orderB,1,mütze,1.95,low,f,5.546885694729637,5,mpi,04103
3118,8,telephone,telephone,target,upper-right,4caxx1Za,orderB,1,telefon,3.53,middle,f,5.546885694729637,5,mpi,04103
3456,9,strawberry,strawberry,target,upper-left,4caxx1Za,orderB,1,erdbeere,3.47,low,f,5.546885694729637,5,mpi,04103
2391,10,scissors,scissors,target,upper-right,4caxx1Za,orderB,1,schere,3.38,low,f,5.546885694729637,5,mpi,04103
1680,11,bone,bone,target,lower-right,4caxx1Za,orderB,1,knochen,4.64,middle,f,5.546885694729637,5,mpi,04103
2488,12,paintbrush,paintbrush,target,lower-left,4caxx1Za,orderB,1,pinsel,3.43,low,f,5.546885694729637,5,mpi,04103
6687,13,fryingpan,fryingpan,target,upper-left,4caxx1Za,orderB,1,pfanne,4.16,middle,f,5.546885694729637,5,mpi,04103
4118,14,carrot,carrot,target,lower-right,4caxx1Za,orderB,1,möhre,3.36,low,f,5.546885694729637,5,mpi,04103
2279,15,plane,plane,target,lower-left,4caxx1Za,orderB,1,flugzeug,3.24,low,f,5.546885694729637,5,mpi,04103
3991,16,tiger,tiger,target,upper-right,4caxx1Za,orderB,1,tiger,3.88,middle,f,5.546885694729637,5,mpi,04103
5838,17,snake,snake,target,upper-left,4caxx1Za,orderB,1,schlange,2,low,f,5.546885694729637,5,mpi,04103
3999,18,apple,apple,target,upper-left,4caxx1Za,orderB,1,apfel,2.71,low,f,5.546885694729637,5,mpi,04103
3206,19,battery,battery,target,lower-right,4caxx1Za,orderB,1,batterie,5.94,middle,f,5.546885694729637,5,mpi,04103
5168,20,flag,flag,target,lower-right,4caxx1Za,orderB,1,flagge,5.86,middle,f,5.546885694729637,5,mpi,04103
4975,21,ladder,ladder,target,upper-right,4caxx1Za,orderB,1,leiter,4.47,middle,f,5.546885694729637,5,mpi,04103
5231,22,fish,fish,target,lower-left,4caxx1Za,orderB,1,fisch,2.76,low,f,5.546885694729637,5,mpi,04103
5591,23,giraffe,giraffe,target,upper-left,4caxx1Za,orderB,1,giraffe,3.79,middle,f,5.546885694729637,5,mpi,04103
8688,24,ant,ant,target,upper-right,4caxx1Za,orderB,1,ameise,4.6,middle,f,5.546885694729637,5,mpi,04103
13175,25,bicycle,bicycle,target,upper-right,4caxx1Za,orderB,1,fahrrad,3.8,middle,f,5.546885694729637,5,mpi,04103
16463,26,ruin,ruin,target,lower-right,4caxx1Za,orderB,1,ruine,6.21,high,f,5.546885694729637,5,mpi,04103
6211,27,choir,choir,target,upper-right,4caxx1Za,orderB,1,chor,7.19,high,f,5.546885694729637,5,mpi,04103
2949,28,pineapple,pineapple,target,lower-right,4caxx1Za,orderB,1,ananas,4.1,middle,f,5.546885694729637,5,mpi,04103
3295,29,zebra,zebra,target,upper-right,4caxx1Za,orderB,1,zebra,3.65,middle,f,5.546885694729637,5,mpi,04103
4856,30,belt,belt,target,lower-right,4caxx1Za,orderB,1,gürtel,4.11,middle,f,5.546885694729637,5,mpi,04103
7358,31,mushroom,mushroom,target,lower-right,4caxx1Za,orderB,1,pilz,3.67,middle,f,5.546885694729637,5,mpi,04103
3814,32,elk,elk,target,upper-left,4caxx1Za,orderB,1,elch,6.28,high,f,5.546885694729637,5,mpi,04103
3551,33,needle,needle,target,upper-left,4caxx1Za,orderB,1,nadel,4.22,middle,f,5.546885694729637,5,mpi,04103
5743,34,arugula,poster,dist3,upper-right,4caxx1Za,orderB,0,rucola,6.18,high,f,5.546885694729637,5,mpi,04103
5062,35,palmtree,palmtree,target,lower-left,4caxx1Za,orderB,1,palme,6.57,high,f,5.546885694729637,5,mpi,04103
3113,36,kangaroo,kangaroo,target,lower-left,4caxx1Za,orderB,1,känguru,5.89,middle,f,5.546885694729637,5,mpi,04103
6240,37,gazelle,astronaut,dist3,lower-left,4caxx1Za,orderB,0,gazelle,6.31,high,f,5.546885694729637,5,mpi,04103
3927,38,badger,badger,target,lower-left,4caxx1Za,orderB,1,dachs,6.17,high,f,5.546885694729637,5,mpi,04103
9462,39,chanterelle,diamond,dist3,upper-right,4caxx1Za,orderB,0,pfifferling,7.13,high,f,5.546885694729637,5,mpi,04103
6808,40,orchid,banner,dist3,lower-right,4caxx1Za,orderB,0,orchidee,9.76,high,f,5.546885694729637,5,mpi,04103
8262,41,carnation,compass,dist3,upper-left,4caxx1Za,orderB,0,nelke,7.82,high,f,5.546885694729637,5,mpi,04103
13877,42,ventilator,ventilator,target,upper-right,4caxx1Za,orderB,1,ventilator,6.59,high,f,5.546885694729637,5,mpi,04103
9791,43,labyrinth,labyrinth,target,lower-left,4caxx1Za,orderB,1,labyrinth,6.63,high,f,5.546885694729637,5,mpi,04103
8880,44,ocean,ocean,target,upper-left,4caxx1Za,orderB,1,ozean,6.46,high,f,5.546885694729637,5,mpi,04103
6327,45,lobster,microscope,dist3,upper-left,4caxx1Za,orderB,0,hummer,8,high,f,5.546885694729637,5,mpi,04103
6047,46,cello,marshmallow,dist2,upper-right,4caxx1Za,orderB,0,cello,8.67,high,f,5.546885694729637,5,mpi,04103
9624,47,kayak,boomerang,dist3,lower-right,4caxx1Za,orderB,0,kajak,8.82,high,f,5.546885694729637,5,mpi,04103
7575,48,ruler,ruler,target,lower-left,4caxx1Za,orderB,1,lineal,4.9,middle,f,5.546885694729637,5,mpi,04103
5759,49,jaguar,jaguar,target,lower-right,4caxx1Za,orderB,1,jaguar,7.64,high,f,5.546885694729637,5,mpi,04103
5205,50,flounder,orca,dist1,lower-left,4caxx1Za,orderB,0,flunder,6.95,high,f,5.546885694729637,5,mpi,04103
7447,51,satellite,rocket,dist1,upper-right,4caxx1Za,orderB,0,satellit,8.94,high,f,5.546885694729637,5,mpi,04103
6807,52,zucchini,skateboard,dist3,lower-left,4caxx1Za,orderB,0,zucchini,5.95,middle,f,5.546885694729637,5,mpi,04103
39507,1,door,door,target,lower-left,4FE17bna,orderB,1,tür,3.12,low,m,4.030116358658453,4,mpi,04103
3208,2,stairs,stairs,target,lower-right,4FE17bna,orderB,1,treppe,3.25,low,m,4.030116358658453,4,mpi,04103
8512,3,eye,eye,target,upper-left,4FE17bna,orderB,1,auge,2.69,low,m,4.030116358658453,4,mpi,04103
4400,4,desk,desk,target,lower-left,4FE17bna,orderB,1,schreibtisch,3.2,low,m,4.030116358658453,4,mpi,04103
2715,5,star,star,target,upper-left,4FE17bna,orderB,1,stern,3.29,low,m,4.030116358658453,4,mpi,04103
2757,6,squirrel,squirrel,target,lower-left,4FE17bna,orderB,1,eichhörnchen,2.6,low,m,4.030116358658453,4,mpi,04103
2761,7,cap,cap,target,upper-right,4FE17bna,orderB,1,mütze,1.95,low,m,4.030116358658453,4,mpi,04103
2555,8,telephone,telephone,target,upper-right,4FE17bna,orderB,1,telefon,3.53,middle,m,4.030116358658453,4,mpi,04103
2614,9,strawberry,strawberry,target,upper-left,4FE17bna,orderB,1,erdbeere,3.47,low,m,4.030116358658453,4,mpi,04103
2502,10,scissors,scissors,target,upper-right,4FE17bna,orderB,1,schere,3.38,low,m,4.030116358658453,4,mpi,04103
2656,11,bone,bone,target,lower-right,4FE17bna,orderB,1,knochen,4.64,middle,m,4.030116358658453,4,mpi,04103
3793,12,paintbrush,paintbrush,target,lower-left,4FE17bna,orderB,1,pinsel,3.43,low,m,4.030116358658453,4,mpi,04103
2334,13,fryingpan,fryingpan,target,upper-left,4FE17bna,orderB,1,pfanne,4.16,middle,m,4.030116358658453,4,mpi,04103
5276,14,carrot,carrot,target,lower-right,4FE17bna,orderB,1,möhre,3.36,low,m,4.030116358658453,4,mpi,04103
2549,15,plane,plane,target,lower-left,4FE17bna,orderB,1,flugzeug,3.24,low,m,4.030116358658453,4,mpi,04103
2270,16,tiger,tiger,target,upper-right,4FE17bna,orderB,1,tiger,3.88,middle,m,4.030116358658453,4,mpi,04103
2468,17,snake,snake,target,upper-left,4FE17bna,orderB,1,schlange,2,low,m,4.030116358658453,4,mpi,04103
4428,18,apple,apple,target,upper-left,4FE17bna,orderB,1,apfel,2.71,low,m,4.030116358658453,4,mpi,04103
5340,19,battery,battery,target,lower-right,4FE17bna,orderB,1,batterie,5.94,middle,m,4.030116358658453,4,mpi,04103
3181,20,flag,flag,target,lower-right,4FE17bna,orderB,1,flagge,5.86,middle,m,4.030116358658453,4,mpi,04103
5032,21,ladder,ladder,target,upper-right,4FE17bna,orderB,1,leiter,4.47,middle,m,4.030116358658453,4,mpi,04103
2744,22,fish,fish,target,lower-left,4FE17bna,orderB,1,fisch,2.76,low,m,4.030116358658453,4,mpi,04103
3255,23,giraffe,giraffe,target,upper-left,4FE17bna,orderB,1,giraffe,3.79,middle,m,4.030116358658453,4,mpi,04103
2871,24,ant,ant,target,upper-right,4FE17bna,orderB,1,ameise,4.6,middle,m,4.030116358658453,4,mpi,04103
2997,25,bicycle,bicycle,target,upper-right,4FE17bna,orderB,1,fahrrad,3.8,middle,m,4.030116358658453,4,mpi,04103
11716,26,ruin,railtracks,dist2,lower-left,4FE17bna,orderB,0,ruine,6.21,high,m,4.030116358658453,4,mpi,04103
3887,27,choir,orchestra,dist1,lower-right,4FE17bna,orderB,0,chor,7.19,high,m,4.030116358658453,4,mpi,04103
3558,28,pineapple,pineapple,target,lower-right,4FE17bna,orderB,1,ananas,4.1,middle,m,4.030116358658453,4,mpi,04103
3912,29,zebra,zebra,target,upper-right,4FE17bna,orderB,1,zebra,3.65,middle,m,4.030116358658453,4,mpi,04103
2779,30,belt,belt,target,lower-right,4FE17bna,orderB,1,gürtel,4.11,middle,m,4.030116358658453,4,mpi,04103
3033,31,mushroom,mushroom,target,lower-right,4FE17bna,orderB,1,pilz,3.67,middle,m,4.030116358658453,4,mpi,04103
2660,32,elk,elk,target,upper-left,4FE17bna,orderB,1,elch,6.28,high,m,4.030116358658453,4,mpi,04103
2729,33,needle,needle,target,upper-left,4FE17bna,orderB,1,nadel,4.22,middle,m,4.030116358658453,4,mpi,04103
6549,34,arugula,brusselsprouts,dist1,lower-left,4FE17bna,orderB,0,rucola,6.18,high,m,4.030116358658453,4,mpi,04103
5472,35,palmtree,palmtree,target,lower-left,4FE17bna,orderB,1,palme,6.57,high,m,4.030116358658453,4,mpi,04103
2651,36,kangaroo,kangaroo,target,lower-left,4FE17bna,orderB,1,känguru,5.89,middle,m,4.030116358658453,4,mpi,04103
2594,37,gazelle,gazelle,target,lower-right,4FE17bna,orderB,1,gazelle,6.31,high,m,4.030116358658453,4,mpi,04103
1725,38,badger,raccoon,dist1,lower-right,4FE17bna,orderB,0,dachs,6.17,high,m,4.030116358658453,4,mpi,04103
10070,39,chanterelle,chanterelle,target,upper-left,4FE17bna,orderB,1,pfifferling,7.13,high,m,4.030116358658453,4,mpi,04103
7209,40,orchid,shrub,dist1,upper-left,4FE17bna,orderB,0,orchidee,9.76,high,m,4.030116358658453,4,mpi,04103
7348,41,carnation,carnation,target,upper-right,4FE17bna,orderB,1,nelke,7.82,high,m,4.030116358658453,4,mpi,04103
4383,42,ventilator,ventilator,target,upper-right,4FE17bna,orderB,1,ventilator,6.59,high,m,4.030116358658453,4,mpi,04103
4592,43,labyrinth,rollercoaster,dist1,upper-left,4FE17bna,orderB,0,labyrinth,6.63,high,m,4.030116358658453,4,mpi,04103
2640,44,ocean,ocean,target,upper-left,4FE17bna,orderB,1,ozean,6.46,high,m,4.030116358658453,4,mpi,04103
2858,45,lobster,lobster,target,upper-right,4FE17bna,orderB,1,hummer,8,high,m,4.030116358658453,4,mpi,04103
11049,46,cello,harp,dist1,lower-right,4FE17bna,orderB,0,cello,8.67,high,m,4.030116358658453,4,mpi,04103
5422,47,kayak,kayak,target,upper-left,4FE17bna,orderB,1,kajak,8.82,high,m,4.030116358658453,4,mpi,04103
7332,48,ruler,ruler,target,lower-left,4FE17bna,orderB,1,lineal,4.9,middle,m,4.030116358658453,4,mpi,04103
8300,49,jaguar,jaguar,target,lower-right,4FE17bna,orderB,1,jaguar,7.64,high,m,4.030116358658453,4,mpi,04103
2786,50,flounder,flounder,target,lower-right,4FE17bna,orderB,1,flunder,6.95,high,m,4.030116358658453,4,mpi,04103
7693,51,satellite,meteorid,dist2,lower-right,4FE17bna,orderB,0,satellit,8.94,high,m,4.030116358658453,4,mpi,04103
3325,52,zucchini,zucchini,target,upper-right,4FE17bna,orderB,1,zucchini,5.95,middle,m,4.030116358658453,4,mpi,04103
4438,1,squirrel,squirrel,target,lower-left,4HyJtwo9,orderA,1,eichhörnchen,2.6,low,f,7.969883641341547,7,mpi,04103
5592,2,cap,cap,target,upper-right,4HyJtwo9,orderA,1,mütze,1.95,low,f,7.969883641341547,7,mpi,04103
3725,3,door,door,target,lower-left,4HyJtwo9,orderA,1,tür,3.12,low,f,7.969883641341547,7,mpi,04103
4240,4,stairs,stairs,target,lower-right,4HyJtwo9,orderA,1,treppe,3.25,low,f,7.969883641341547,7,mpi,04103
5847,5,desk,desk,target,lower-left,4HyJtwo9,orderA,1,schreibtisch,3.2,low,f,7.969883641341547,7,mpi,04103
3251,6,strawberry,strawberry,target,upper-left,4HyJtwo9,orderA,1,erdbeere,3.47,low,f,7.969883641341547,7,mpi,04103
2423,7,eye,eye,target,upper-left,4HyJtwo9,orderA,1,auge,2.69,low,f,7.969883641341547,7,mpi,04103
3173,8,plane,plane,target,lower-left,4HyJtwo9,orderA,1,flugzeug,3.24,low,f,7.969883641341547,7,mpi,04103
2722,9,paintbrush,paintbrush,target,lower-left,4HyJtwo9,orderA,1,pinsel,3.43,low,f,7.969883641341547,7,mpi,04103
6618,10,telephone,telephone,target,upper-right,4HyJtwo9,orderA,1,telefon,3.53,middle,f,7.969883641341547,7,mpi,04103
2486,11,snake,snake,target,upper-left,4HyJtwo9,orderA,1,schlange,2,low,f,7.969883641341547,7,mpi,04103
3429,12,carrot,carrot,target,lower-right,4HyJtwo9,orderA,1,möhre,3.36,low,f,7.969883641341547,7,mpi,04103
2886,13,star,star,target,upper-left,4HyJtwo9,orderA,1,stern,3.29,low,f,7.969883641341547,7,mpi,04103
3190,14,scissors,scissors,target,upper-right,4HyJtwo9,orderA,1,schere,3.38,low,f,7.969883641341547,7,mpi,04103
2771,15,tiger,tiger,target,upper-right,4HyJtwo9,orderA,1,tiger,3.88,middle,f,7.969883641341547,7,mpi,04103
3169,16,bone,bone,target,lower-right,4HyJtwo9,orderA,1,knochen,4.64,middle,f,7.969883641341547,7,mpi,04103
2869,17,apple,apple,target,upper-left,4HyJtwo9,orderA,1,apfel,2.71,low,f,7.969883641341547,7,mpi,04103
2749,18,fish,fish,target,lower-left,4HyJtwo9,orderA,1,fisch,2.76,low,f,7.969883641341547,7,mpi,04103
4740,19,ant,ant,target,upper-right,4HyJtwo9,orderA,1,ameise,4.6,middle,f,7.969883641341547,7,mpi,04103
2684,20,belt,belt,target,lower-right,4HyJtwo9,orderA,1,gürtel,4.11,middle,f,7.969883641341547,7,mpi,04103
3835,21,fryingpan,fryingpan,target,upper-left,4HyJtwo9,orderA,1,pfanne,4.16,middle,f,7.969883641341547,7,mpi,04103
9959,22,zebra,zebra,target,upper-right,4HyJtwo9,orderA,1,zebra,3.65,middle,f,7.969883641341547,7,mpi,04103
4068,23,needle,needle,target,upper-left,4HyJtwo9,orderA,1,nadel,4.22,middle,f,7.969883641341547,7,mpi,04103
5280,24,bicycle,bicycle,target,upper-right,4HyJtwo9,orderA,1,fahrrad,3.8,middle,f,7.969883641341547,7,mpi,04103
5407,25,ladder,ladder,target,upper-right,4HyJtwo9,orderA,1,leiter,4.47,middle,f,7.969883641341547,7,mpi,04103
3501,26,battery,battery,target,lower-right,4HyJtwo9,orderA,1,batterie,5.94,middle,f,7.969883641341547,7,mpi,04103
3594,27,elk,elk,target,upper-left,4HyJtwo9,orderA,1,elch,6.28,high,f,7.969883641341547,7,mpi,04103
22698,28,choir,choir,target,upper-right,4HyJtwo9,orderA,1,chor,7.19,high,f,7.969883641341547,7,mpi,04103
3542,29,kangaroo,kangaroo,target,lower-left,4HyJtwo9,orderA,1,känguru,5.89,middle,f,7.969883641341547,7,mpi,04103
3024,30,ventilator,ventilator,target,upper-right,4HyJtwo9,orderA,1,ventilator,6.59,high,f,7.969883641341547,7,mpi,04103
5611,31,arugula,arugula,target,lower-right,4HyJtwo9,orderA,1,rucola,6.18,high,f,7.969883641341547,7,mpi,04103
2824,32,flag,flag,target,lower-right,4HyJtwo9,orderA,1,flagge,5.86,middle,f,7.969883641341547,7,mpi,04103
3365,33,giraffe,giraffe,target,upper-left,4HyJtwo9,orderA,1,giraffe,3.79,middle,f,7.969883641341547,7,mpi,04103
2694,34,palmtree,palmtree,target,lower-left,4HyJtwo9,orderA,1,palme,6.57,high,f,7.969883641341547,7,mpi,04103
3109,35,pineapple,pineapple,target,lower-right,4HyJtwo9,orderA,1,ananas,4.1,middle,f,7.969883641341547,7,mpi,04103
14210,36,ocean,ocean,target,upper-left,4HyJtwo9,orderA,1,ozean,6.46,high,f,7.969883641341547,7,mpi,04103
4115,37,gazelle,gazelle,target,lower-right,4HyJtwo9,orderA,1,gazelle,6.31,high,f,7.969883641341547,7,mpi,04103
3839,38,ruler,ruler,target,lower-left,4HyJtwo9,orderA,1,lineal,4.9,middle,f,7.969883641341547,7,mpi,04103
3041,39,badger,badger,target,lower-left,4HyJtwo9,orderA,1,dachs,6.17,high,f,7.969883641341547,7,mpi,04103
4925,40,chanterelle,chanterelle,target,upper-left,4HyJtwo9,orderA,1,pfifferling,7.13,high,f,7.969883641341547,7,mpi,04103
5300,41,ruin,ruin,target,lower-right,4HyJtwo9,orderA,1,ruine,6.21,high,f,7.969883641341547,7,mpi,04103
2605,42,labyrinth,labyrinth,target,lower-left,4HyJtwo9,orderA,1,labyrinth,6.63,high,f,7.969883641341547,7,mpi,04103
3767,43,mushroom,mushroom,target,lower-right,4HyJtwo9,orderA,1,pilz,3.67,middle,f,7.969883641341547,7,mpi,04103
9520,44,orchid,orchid,target,lower-left,4HyJtwo9,orderA,1,orchidee,9.76,high,f,7.969883641341547,7,mpi,04103
3485,45,zucchini,zucchini,target,upper-right,4HyJtwo9,orderA,1,zucchini,5.95,middle,f,7.969883641341547,7,mpi,04103
14889,46,kayak,kayak,target,upper-left,4HyJtwo9,orderA,1,kajak,8.82,high,f,7.969883641341547,7,mpi,04103
2722,47,lobster,lobster,target,upper-right,4HyJtwo9,orderA,1,hummer,8,high,f,7.969883641341547,7,mpi,04103
5968,48,jaguar,jaguar,target,lower-right,4HyJtwo9,orderA,1,jaguar,7.64,high,f,7.969883641341547,7,mpi,04103
12703,49,carnation,violets,dist1,lower-right,4HyJtwo9,orderA,0,nelke,7.82,high,f,7.969883641341547,7,mpi,04103
24127,50,satellite,satellite,target,upper-left,4HyJtwo9,orderA,1,satellit,8.94,high,f,7.969883641341547,7,mpi,04103
14372,51,flounder,flounder,target,lower-right,4HyJtwo9,orderA,1,flunder,6.95,high,f,7.969883641341547,7,mpi,04103
2474,52,cello,cello,target,lower-left,4HyJtwo9,orderA,1,cello,8.67,high,f,7.969883641341547,7,mpi,04103
5118,1,door,door,target,lower-left,4NgqmQZo,orderB,1,tür,3.12,low,m,3.915126625598905,3,mpi,04103
4375,2,stairs,stairs,target,lower-right,4NgqmQZo,orderB,1,treppe,3.25,low,m,3.915126625598905,3,mpi,04103
4727,3,eye,eye,target,upper-left,4NgqmQZo,orderB,1,auge,2.69,low,m,3.915126625598905,3,mpi,04103
4951,4,desk,desk,target,lower-left,4NgqmQZo,orderB,1,schreibtisch,3.2,low,m,3.915126625598905,3,mpi,04103
5793,5,star,leg,dist2,upper-right,4NgqmQZo,orderB,0,stern,3.29,low,m,3.915126625598905,3,mpi,04103
3016,6,squirrel,squirrel,target,lower-left,4NgqmQZo,orderB,1,eichhörnchen,2.6,low,m,3.915126625598905,3,mpi,04103
3303,7,cap,cap,target,upper-right,4NgqmQZo,orderB,1,mütze,1.95,low,m,3.915126625598905,3,mpi,04103
2751,8,telephone,telephone,target,upper-right,4NgqmQZo,orderB,1,telefon,3.53,middle,m,3.915126625598905,3,mpi,04103
3120,9,strawberry,strawberry,target,upper-left,4NgqmQZo,orderB,1,erdbeere,3.47,low,m,3.915126625598905,3,mpi,04103
3046,10,scissors,scissors,target,upper-right,4NgqmQZo,orderB,1,schere,3.38,low,m,3.915126625598905,3,mpi,04103
3071,11,bone,bone,target,lower-right,4NgqmQZo,orderB,1,knochen,4.64,middle,m,3.915126625598905,3,mpi,04103
2511,12,paintbrush,paintbrush,target,lower-left,4NgqmQZo,orderB,1,pinsel,3.43,low,m,3.915126625598905,3,mpi,04103
2781,13,fryingpan,fryingpan,target,upper-left,4NgqmQZo,orderB,1,pfanne,4.16,middle,m,3.915126625598905,3,mpi,04103
3933,14,carrot,carrot,target,lower-right,4NgqmQZo,orderB,1,möhre,3.36,low,m,3.915126625598905,3,mpi,04103
3010,15,plane,plane,target,lower-left,4NgqmQZo,orderB,1,flugzeug,3.24,low,m,3.915126625598905,3,mpi,04103
2463,16,tiger,tiger,target,upper-right,4NgqmQZo,orderB,1,tiger,3.88,middle,m,3.915126625598905,3,mpi,04103
2746,17,snake,snake,target,upper-left,4NgqmQZo,orderB,1,schlange,2,low,m,3.915126625598905,3,mpi,04103
2516,18,apple,apple,target,upper-left,4NgqmQZo,orderB,1,apfel,2.71,low,m,3.915126625598905,3,mpi,04103
3414,19,battery,battery,target,lower-right,4NgqmQZo,orderB,1,batterie,5.94,middle,m,3.915126625598905,3,mpi,04103
3703,20,flag,flag,target,lower-right,4NgqmQZo,orderB,1,flagge,5.86,middle,m,3.915126625598905,3,mpi,04103
4518,21,ladder,ladder,target,upper-right,4NgqmQZo,orderB,1,leiter,4.47,middle,m,3.915126625598905,3,mpi,04103
3602,22,fish,fish,target,lower-left,4NgqmQZo,orderB,1,fisch,2.76,low,m,3.915126625598905,3,mpi,04103
3630,23,giraffe,giraffe,target,upper-left,4NgqmQZo,orderB,1,giraffe,3.79,middle,m,3.915126625598905,3,mpi,04103
3687,24,ant,ant,target,upper-right,4NgqmQZo,orderB,1,ameise,4.6,middle,m,3.915126625598905,3,mpi,04103
3445,25,bicycle,bicycle,target,upper-right,4NgqmQZo,orderB,1,fahrrad,3.8,middle,m,3.915126625598905,3,mpi,04103
9685,26,ruin,fortress,dist1,upper-right,4NgqmQZo,orderB,0,ruine,6.21,high,m,3.915126625598905,3,mpi,04103
6130,27,choir,pipe,dist2,upper-left,4NgqmQZo,orderB,0,chor,7.19,high,m,3.915126625598905,3,mpi,04103
2445,28,pineapple,pineapple,target,lower-right,4NgqmQZo,orderB,1,ananas,4.1,middle,m,3.915126625598905,3,mpi,04103
2852,29,zebra,zebra,target,upper-right,4NgqmQZo,orderB,1,zebra,3.65,middle,m,3.915126625598905,3,mpi,04103
3701,30,belt,belt,target,lower-right,4NgqmQZo,orderB,1,gürtel,4.11,middle,m,3.915126625598905,3,mpi,04103
5295,31,mushroom,mushroom,target,lower-right,4NgqmQZo,orderB,1,pilz,3.67,middle,m,3.915126625598905,3,mpi,04103
12531,32,elk,mammoth,dist1,lower-left,4NgqmQZo,orderB,0,elch,6.28,high,m,3.915126625598905,3,mpi,04103
3371,33,needle,needle,target,upper-left,4NgqmQZo,orderB,1,nadel,4.22,middle,m,3.915126625598905,3,mpi,04103
20326,34,arugula,arugula,target,lower-right,4NgqmQZo,orderB,1,rucola,6.18,high,m,3.915126625598905,3,mpi,04103
3972,35,palmtree,palmtree,target,lower-left,4NgqmQZo,orderB,1,palme,6.57,high,m,3.915126625598905,3,mpi,04103
5773,36,kangaroo,kangaroo,target,lower-left,4NgqmQZo,orderB,1,känguru,5.89,middle,m,3.915126625598905,3,mpi,04103
