responseTime,trial,targetWord,chosenWord,chosenCategory,chosenPosition,subjID,order,correct,german,aoa_german_comb,group,sex,age,age_group,source,postcode
6608,1,door,door,target,lower-left,3exQoXXu,orderB,1,tür,3.12,low,f,5.700205338809035,5,mpi,04103
3745,2,stairs,stairs,target,lower-right,3exQoXXu,orderB,1,treppe,3.25,low,f,5.700205338809035,5,mpi,04103
5043,3,eye,eye,target,upper-left,3exQoXXu,orderB,1,auge,2.69,low,f,5.700205338809035,5,mpi,04103
3711,4,desk,desk,target,lower-left,3exQoXXu,orderB,1,schreibtisch,3.2,low,f,5.700205338809035,5,mpi,04103
3578,5,star,star,target,upper-left,3exQoXXu,orderB,1,stern,3.29,low,f,5.700205338809035,5,mpi,04103
3109,6,squirrel,squirrel,target,lower-left,3exQoXXu,orderB,1,eichhörnchen,2.6,low,f,5.700205338809035,5,mpi,04103
2526,7,cap,cap,target,upper-right,3exQoXXu,orderB,1,mütze,1.95,low,f,5.700205338809035,5,mpi,04103
3527,8,telephone,telephone,target,upper-right,3exQoXXu,orderB,1,telefon,3.53,middle,f,5.700205338809035,5,mpi,04103
2494,9,strawberry,strawberry,target,upper-left,3exQoXXu,orderB,1,erdbeere,3.47,low,f,5.700205338809035,5,mpi,04103
2825,10,scissors,scissors,target,upper-right,3exQoXXu,orderB,1,schere,3.38,low,f,5.700205338809035,5,mpi,04103
2779,11,bone,bone,target,lower-right,3exQoXXu,orderB,1,knochen,4.64,middle,f,5.700205338809035,5,mpi,04103
2710,12,paintbrush,paintbrush,target,lower-left,3exQoXXu,orderB,1,pinsel,3.43,low,f,5.700205338809035,5,mpi,04103
3770,13,fryingpan,fryingpan,target,upper-left,3exQoXXu,orderB,1,pfanne,4.16,middle,f,5.700205338809035,5,mpi,04103
1828,14,carrot,carrot,target,lower-right,3exQoXXu,orderB,1,möhre,3.36,low,f,5.700205338809035,5,mpi,04103
3909,15,plane,plane,target,lower-left,3exQoXXu,orderB,1,hobel,7.53,high,f,5.700205338809035,5,mpi,04103
2961,16,tiger,tiger,target,upper-right,3exQoXXu,orderB,1,tiger,3.88,middle,f,5.700205338809035,5,mpi,04103
2395,17,snake,snake,target,upper-left,3exQoXXu,orderB,1,schlange,2,low,f,5.700205338809035,5,mpi,04103
2210,18,apple,apple,target,upper-left,3exQoXXu,orderB,1,apfel,2.71,low,f,5.700205338809035,5,mpi,04103
3026,19,battery,battery,target,lower-right,3exQoXXu,orderB,1,batterie,5.94,middle,f,5.700205338809035,5,mpi,04103
2577,20,flag,flag,target,lower-right,3exQoXXu,orderB,1,flagge,5.86,middle,f,5.700205338809035,5,mpi,04103
4273,21,ladder,ladder,target,upper-right,3exQoXXu,orderB,1,leiter,4.47,middle,f,5.700205338809035,5,mpi,04103
2608,22,fish,fish,target,lower-left,3exQoXXu,orderB,1,fisch,2.76,low,f,5.700205338809035,5,mpi,04103
3291,23,giraffe,giraffe,target,upper-left,3exQoXXu,orderB,1,giraffe,3.79,middle,f,5.700205338809035,5,mpi,04103
2909,24,ant,ant,target,upper-right,3exQoXXu,orderB,1,ameise,4.6,middle,f,5.700205338809035,5,mpi,04103
3324,25,bicycle,bicycle,target,upper-right,3exQoXXu,orderB,1,fahrrad,3.8,middle,f,5.700205338809035,5,mpi,04103
6508,26,ruin,ruin,target,lower-right,3exQoXXu,orderB,1,ruine,6.21,high,f,5.700205338809035,5,mpi,04103
11246,27,choir,choir,target,upper-right,3exQoXXu,orderB,1,chor,7.19,high,f,5.700205338809035,5,mpi,04103
4010,28,pineapple,pineapple,target,lower-right,3exQoXXu,orderB,1,ananas,4.1,middle,f,5.700205338809035,5,mpi,04103
2512,29,zebra,zebra,target,upper-right,3exQoXXu,orderB,1,zebra,3.65,middle,f,5.700205338809035,5,mpi,04103
1728,30,belt,belt,target,lower-right,3exQoXXu,orderB,1,gürtel,4.11,middle,f,5.700205338809035,5,mpi,04103
2061,31,mushroom,mushroom,target,lower-right,3exQoXXu,orderB,1,pilz,3.67,middle,f,5.700205338809035,5,mpi,04103
4678,32,elk,elk,target,upper-left,3exQoXXu,orderB,1,elch,6.28,high,f,5.700205338809035,5,mpi,04103
2811,33,needle,needle,target,upper-left,3exQoXXu,orderB,1,nadel,4.22,middle,f,5.700205338809035,5,mpi,04103
9626,34,arugula,dracula,dist2,upper-left,3exQoXXu,orderB,0,rucola,6.18,high,f,5.700205338809035,5,mpi,04103
2812,35,palmtree,palmtree,target,lower-left,3exQoXXu,orderB,1,palme,6.57,high,f,5.700205338809035,5,mpi,04103
2112,36,kangaroo,kangaroo,target,lower-left,3exQoXXu,orderB,1,känguru,5.89,middle,f,5.700205338809035,5,mpi,04103
3962,37,gazelle,gazelle,target,lower-right,3exQoXXu,orderB,1,gazelle,6.31,high,f,5.700205338809035,5,mpi,04103
7210,38,badger,badger,target,lower-left,3exQoXXu,orderB,1,dachs,6.17,high,f,5.700205338809035,5,mpi,04103
6727,39,chanterelle,chanterelle,target,upper-left,3exQoXXu,orderB,1,pfifferling,7.13,high,f,5.700205338809035,5,mpi,04103
16760,40,orchid,orchid,target,lower-left,3exQoXXu,orderB,1,orchidee,9.76,high,f,5.700205338809035,5,mpi,04103
3944,41,carnation,violets,dist1,lower-right,3exQoXXu,orderB,0,nelke,7.82,high,f,5.700205338809035,5,mpi,04103
3576,42,ventilator,ventilator,target,upper-right,3exQoXXu,orderB,1,ventilator,6.59,high,f,5.700205338809035,5,mpi,04103
2710,43,labyrinth,labyrinth,target,lower-left,3exQoXXu,orderB,1,labyrinth,6.63,high,f,5.700205338809035,5,mpi,04103
4277,44,ocean,ocean,target,upper-left,3exQoXXu,orderB,1,ozean,6.46,high,f,5.700205338809035,5,mpi,04103
4042,45,lobster,lobster,target,upper-right,3exQoXXu,orderB,1,hummer,8,high,f,5.700205338809035,5,mpi,04103
1927,46,cello,cello,target,lower-left,3exQoXXu,orderB,1,cello,8.67,high,f,5.700205338809035,5,mpi,04103
3496,47,kayak,kayak,target,upper-left,3exQoXXu,orderB,1,kajak,8.82,high,f,5.700205338809035,5,mpi,04103
2457,48,ruler,ruler,target,lower-left,3exQoXXu,orderB,1,lineal,4.9,middle,f,5.700205338809035,5,mpi,04103
4741,49,jaguar,panther,dist1,lower-left,3exQoXXu,orderB,0,jaguar,7.64,high,f,5.700205338809035,5,mpi,04103
2922,50,flounder,flounder,target,lower-right,3exQoXXu,orderB,1,flunder,6.95,high,f,5.700205338809035,5,mpi,04103
7515,51,satellite,satellite,target,upper-left,3exQoXXu,orderB,1,satellit,8.94,high,f,5.700205338809035,5,mpi,04103
4793,52,zucchini,zucchini,target,upper-right,3exQoXXu,orderB,1,zucchini,5.95,middle,f,5.700205338809035,5,mpi,04103
5118,1,door,door,target,lower-left,4NgqmQZo,orderB,1,tür,3.12,low,m,3.915126625598905,3,mpi,04103
4375,2,stairs,stairs,target,lower-right,4NgqmQZo,orderB,1,treppe,3.25,low,m,3.915126625598905,3,mpi,04103
4727,3,eye,eye,target,upper-left,4NgqmQZo,orderB,1,auge,2.69,low,m,3.915126625598905,3,mpi,04103
4951,4,desk,desk,target,lower-left,4NgqmQZo,orderB,1,schreibtisch,3.2,low,m,3.915126625598905,3,mpi,04103
5793,5,star,leg,dist2,upper-right,4NgqmQZo,orderB,0,stern,3.29,low,m,3.915126625598905,3,mpi,04103
3016,6,squirrel,squirrel,target,lower-left,4NgqmQZo,orderB,1,eichhörnchen,2.6,low,m,3.915126625598905,3,mpi,04103
3303,7,cap,cap,target,upper-right,4NgqmQZo,orderB,1,mütze,1.95,low,m,3.915126625598905,3,mpi,04103
2751,8,telephone,telephone,target,upper-right,4NgqmQZo,orderB,1,telefon,3.53,middle,m,3.915126625598905,3,mpi,04103
3120,9,strawberry,strawberry,target,upper-left,4NgqmQZo,orderB,1,erdbeere,3.47,low,m,3.915126625598905,3,mpi,04103
3046,10,scissors,scissors,target,upper-right,4NgqmQZo,orderB,1,schere,3.38,low,m,3.915126625598905,3,mpi,04103
3071,11,bone,bone,target,lower-right,4NgqmQZo,orderB,1,knochen,4.64,middle,m,3.915126625598905,3,mpi,04103
2511,12,paintbrush,paintbrush,target,lower-left,4NgqmQZo,orderB,1,pinsel,3.43,low,m,3.915126625598905,3,mpi,04103
2781,13,fryingpan,fryingpan,target,upper-left,4NgqmQZo,orderB,1,pfanne,4.16,middle,m,3.915126625598905,3,mpi,04103
3933,14,carrot,carrot,target,lower-right,4NgqmQZo,orderB,1,möhre,3.36,low,m,3.915126625598905,3,mpi,04103
3010,15,plane,plane,target,lower-left,4NgqmQZo,orderB,1,hobel,7.53,high,m,3.915126625598905,3,mpi,04103
2463,16,tiger,tiger,target,upper-right,4NgqmQZo,orderB,1,tiger,3.88,middle,m,3.915126625598905,3,mpi,04103
2746,17,snake,snake,target,upper-left,4NgqmQZo,orderB,1,schlange,2,low,m,3.915126625598905,3,mpi,04103
2516,18,apple,apple,target,upper-left,4NgqmQZo,orderB,1,apfel,2.71,low,m,3.915126625598905,3,mpi,04103
3414,19,battery,battery,target,lower-right,4NgqmQZo,orderB,1,batterie,5.94,middle,m,3.915126625598905,3,mpi,04103
3703,20,flag,flag,target,lower-right,4NgqmQZo,orderB,1,flagge,5.86,middle,m,3.915126625598905,3,mpi,04103
4518,21,ladder,ladder,target,upper-right,4NgqmQZo,orderB,1,leiter,4.47,middle,m,3.915126625598905,3,mpi,04103
3602,22,fish,fish,target,lower-left,4NgqmQZo,orderB,1,fisch,2.76,low,m,3.915126625598905,3,mpi,04103
3630,23,giraffe,giraffe,target,upper-left,4NgqmQZo,orderB,1,giraffe,3.79,middle,m,3.915126625598905,3,mpi,04103
3687,24,ant,ant,target,upper-right,4NgqmQZo,orderB,1,ameise,4.6,middle,m,3.915126625598905,3,mpi,04103
3445,25,bicycle,bicycle,target,upper-right,4NgqmQZo,orderB,1,fahrrad,3.8,middle,m,3.915126625598905,3,mpi,04103
9685,26,ruin,fortress,dist1,upper-right,4NgqmQZo,orderB,0,ruine,6.21,high,m,3.915126625598905,3,mpi,04103
6130,27,choir,pipe,dist2,upper-left,4NgqmQZo,orderB,0,chor,7.19,high,m,3.915126625598905,3,mpi,04103
2445,28,pineapple,pineapple,target,lower-right,4NgqmQZo,orderB,1,ananas,4.1,middle,m,3.915126625598905,3,mpi,04103
2852,29,zebra,zebra,target,upper-right,4NgqmQZo,orderB,1,zebra,3.65,middle,m,3.915126625598905,3,mpi,04103
3701,30,belt,belt,target,lower-right,4NgqmQZo,orderB,1,gürtel,4.11,middle,m,3.915126625598905,3,mpi,04103
5295,31,mushroom,mushroom,target,lower-right,4NgqmQZo,orderB,1,pilz,3.67,middle,m,3.915126625598905,3,mpi,04103
12531,32,elk,mammoth,dist1,lower-left,4NgqmQZo,orderB,0,elch,6.28,high,m,3.915126625598905,3,mpi,04103
3371,33,needle,needle,target,upper-left,4NgqmQZo,orderB,1,nadel,4.22,middle,m,3.915126625598905,3,mpi,04103
20326,34,arugula,arugula,target,lower-right,4NgqmQZo,orderB,1,rucola,6.18,high,m,3.915126625598905,3,mpi,04103
3972,35,palmtree,palmtree,target,lower-left,4NgqmQZo,orderB,1,palme,6.57,high,m,3.915126625598905,3,mpi,04103
5773,36,kangaroo,kangaroo,target,lower-left,4NgqmQZo,orderB,1,känguru,5.89,middle,m,3.915126625598905,3,mpi,04103
10727,37,gazelle,gazelle,target,lower-right,4NgqmQZo,orderB,1,gazelle,6.31,high,m,3.915126625598905,3,mpi,04103
4028,38,badger,badger,target,lower-left,4NgqmQZo,orderB,1,dachs,6.17,high,m,3.915126625598905,3,mpi,04103
8731,39,chanterelle,chanterelle,target,upper-left,4NgqmQZo,orderB,1,pfifferling,7.13,high,m,3.915126625598905,3,mpi,04103
15025,40,orchid,orchid,target,lower-left,4NgqmQZo,orderB,1,orchidee,9.76,high,m,3.915126625598905,3,mpi,04103
9382,41,carnation,carnation,target,upper-right,4NgqmQZo,orderB,1,nelke,7.82,high,m,3.915126625598905,3,mpi,04103
5967,42,ventilator,ventilator,target,upper-right,4NgqmQZo,orderB,1,ventilator,6.59,high,m,3.915126625598905,3,mpi,04103
3518,43,labyrinth,labyrinth,target,lower-left,4NgqmQZo,orderB,1,labyrinth,6.63,high,m,3.915126625598905,3,mpi,04103
3744,44,ocean,ocean,target,upper-left,4NgqmQZo,orderB,1,ozean,6.46,high,m,3.915126625598905,3,mpi,04103
6212,45,lobster,lobster,target,upper-right,4NgqmQZo,orderB,1,hummer,8,high,m,3.915126625598905,3,mpi,04103
8504,46,cello,cello,target,lower-left,4NgqmQZo,orderB,1,cello,8.67,high,m,3.915126625598905,3,mpi,04103
4234,47,kayak,kayak,target,upper-left,4NgqmQZo,orderB,1,kajak,8.82,high,m,3.915126625598905,3,mpi,04103
11073,48,ruler,ruler,target,lower-left,4NgqmQZo,orderB,1,lineal,4.9,middle,m,3.915126625598905,3,mpi,04103
4314,49,jaguar,panther,dist1,lower-left,4NgqmQZo,orderB,0,jaguar,7.64,high,m,3.915126625598905,3,mpi,04103
4885,50,flounder,orca,dist1,lower-left,4NgqmQZo,orderB,0,flunder,6.95,high,m,3.915126625598905,3,mpi,04103
3757,51,satellite,satellite,target,upper-left,4NgqmQZo,orderB,1,satellit,8.94,high,m,3.915126625598905,3,mpi,04103
5173,52,zucchini,zucchini,target,upper-right,4NgqmQZo,orderB,1,zucchini,5.95,middle,m,3.915126625598905,3,mpi,04103
4923,1,door,door,target,lower-left,5kWD3AiL,orderB,1,tür,3.12,low,f,5.232032854209446,5,mpi,04103
4716,2,stairs,stairs,target,lower-right,5kWD3AiL,orderB,1,treppe,3.25,low,f,5.232032854209446,5,mpi,04103
4524,3,eye,eye,target,upper-left,5kWD3AiL,orderB,1,auge,2.69,low,f,5.232032854209446,5,mpi,04103
7749,4,desk,desk,target,lower-left,5kWD3AiL,orderB,1,schreibtisch,3.2,low,f,5.232032854209446,5,mpi,04103
3369,5,star,star,target,upper-left,5kWD3AiL,orderB,1,stern,3.29,low,f,5.232032854209446,5,mpi,04103
3587,6,squirrel,squirrel,target,lower-left,5kWD3AiL,orderB,1,eichhörnchen,2.6,low,f,5.232032854209446,5,mpi,04103
3193,7,cap,cap,target,upper-right,5kWD3AiL,orderB,1,mütze,1.95,low,f,5.232032854209446,5,mpi,04103
3743,8,telephone,telephone,target,upper-right,5kWD3AiL,orderB,1,telefon,3.53,middle,f,5.232032854209446,5,mpi,04103
2960,9,strawberry,strawberry,target,upper-left,5kWD3AiL,orderB,1,erdbeere,3.47,low,f,5.232032854209446,5,mpi,04103
2850,10,scissors,scissors,target,upper-right,5kWD3AiL,orderB,1,schere,3.38,low,f,5.232032854209446,5,mpi,04103
2715,11,bone,bone,target,lower-right,5kWD3AiL,orderB,1,knochen,4.64,middle,f,5.232032854209446,5,mpi,04103
2725,12,paintbrush,paintbrush,target,lower-left,5kWD3AiL,orderB,1,pinsel,3.43,low,f,5.232032854209446,5,mpi,04103
5547,13,fryingpan,fryingpan,target,upper-left,5kWD3AiL,orderB,1,pfanne,4.16,middle,f,5.232032854209446,5,mpi,04103
4618,14,carrot,carrot,target,lower-right,5kWD3AiL,orderB,1,möhre,3.36,low,f,5.232032854209446,5,mpi,04103
3011,15,plane,plane,target,lower-left,5kWD3AiL,orderB,1,hobel,7.53,high,f,5.232032854209446,5,mpi,04103
2647,16,tiger,tiger,target,upper-right,5kWD3AiL,orderB,1,tiger,3.88,middle,f,5.232032854209446,5,mpi,04103
3412,17,snake,snake,target,upper-left,5kWD3AiL,orderB,1,schlange,2,low,f,5.232032854209446,5,mpi,04103
3114,18,apple,apple,target,upper-left,5kWD3AiL,orderB,1,apfel,2.71,low,f,5.232032854209446,5,mpi,04103
3449,19,battery,battery,target,lower-right,5kWD3AiL,orderB,1,batterie,5.94,middle,f,5.232032854209446,5,mpi,04103
33847,20,flag,flag,target,lower-right,5kWD3AiL,orderB,1,flagge,5.86,middle,f,5.232032854209446,5,mpi,04103
4518,21,ladder,ladder,target,upper-right,5kWD3AiL,orderB,1,leiter,4.47,middle,f,5.232032854209446,5,mpi,04103
3546,22,fish,fish,target,lower-left,5kWD3AiL,orderB,1,fisch,2.76,low,f,5.232032854209446,5,mpi,04103
3656,23,giraffe,giraffe,target,upper-left,5kWD3AiL,orderB,1,giraffe,3.79,middle,f,5.232032854209446,5,mpi,04103
3809,24,ant,ant,target,upper-right,5kWD3AiL,orderB,1,ameise,4.6,middle,f,5.232032854209446,5,mpi,04103
3957,25,bicycle,bicycle,target,upper-right,5kWD3AiL,orderB,1,fahrrad,3.8,middle,f,5.232032854209446,5,mpi,04103
24118,26,ruin,ruin,target,lower-right,5kWD3AiL,orderB,1,ruine,6.21,high,f,5.232032854209446,5,mpi,04103
11185,27,choir,orchestra,dist1,lower-right,5kWD3AiL,orderB,0,chor,7.19,high,f,5.232032854209446,5,mpi,04103
2734,28,pineapple,pineapple,target,lower-right,5kWD3AiL,orderB,1,ananas,4.1,middle,f,5.232032854209446,5,mpi,04103
2965,29,zebra,zebra,target,upper-right,5kWD3AiL,orderB,1,zebra,3.65,middle,f,5.232032854209446,5,mpi,04103
2892,30,belt,belt,target,lower-right,5kWD3AiL,orderB,1,gürtel,4.11,middle,f,5.232032854209446,5,mpi,04103
2293,31,mushroom,mushroom,target,lower-right,5kWD3AiL,orderB,1,pilz,3.67,middle,f,5.232032854209446,5,mpi,04103
5385,32,elk,elk,target,upper-left,5kWD3AiL,orderB,1,elch,6.28,high,f,5.232032854209446,5,mpi,04103
4910,33,needle,needle,target,upper-left,5kWD3AiL,orderB,1,nadel,4.22,middle,f,5.232032854209446,5,mpi,04103
7433,34,arugula,brusselsprouts,dist1,lower-left,5kWD3AiL,orderB,0,rucola,6.18,high,f,5.232032854209446,5,mpi,04103
3049,35,palmtree,palmtree,target,lower-left,5kWD3AiL,orderB,1,palme,6.57,high,f,5.232032854209446,5,mpi,04103
2862,36,kangaroo,kangaroo,target,lower-left,5kWD3AiL,orderB,1,känguru,5.89,middle,f,5.232032854209446,5,mpi,04103
28835,37,gazelle,dragonfly,dist2,upper-left,5kWD3AiL,orderB,0,gazelle,6.31,high,f,5.232032854209446,5,mpi,04103
3561,38,badger,badger,target,lower-left,5kWD3AiL,orderB,1,dachs,6.17,high,f,5.232032854209446,5,mpi,04103
19366,39,chanterelle,chanterelle,target,upper-left,5kWD3AiL,orderB,1,pfifferling,7.13,high,f,5.232032854209446,5,mpi,04103
10560,40,orchid,orchid,target,lower-left,5kWD3AiL,orderB,1,orchidee,9.76,high,f,5.232032854209446,5,mpi,04103
7548,41,carnation,violets,dist1,lower-right,5kWD3AiL,orderB,0,nelke,7.82,high,f,5.232032854209446,5,mpi,04103
5398,42,ventilator,ventilator,target,upper-right,5kWD3AiL,orderB,1,ventilator,6.59,high,f,5.232032854209446,5,mpi,04103
4196,43,labyrinth,labyrinth,target,lower-left,5kWD3AiL,orderB,1,labyrinth,6.63,high,f,5.232032854209446,5,mpi,04103
7323,44,ocean,pelican,dist2,lower-right,5kWD3AiL,orderB,0,ozean,6.46,high,f,5.232032854209446,5,mpi,04103
6499,45,lobster,lobster,target,upper-right,5kWD3AiL,orderB,1,hummer,8,high,f,5.232032854209446,5,mpi,04103
6579,46,cello,marshmallow,dist2,upper-right,5kWD3AiL,orderB,0,cello,8.67,high,f,5.232032854209446,5,mpi,04103
11065,47,kayak,boomerang,dist3,lower-right,5kWD3AiL,orderB,0,kajak,8.82,high,f,5.232032854209446,5,mpi,04103
3395,48,ruler,ruler,target,lower-left,5kWD3AiL,orderB,1,lineal,4.9,middle,f,5.232032854209446,5,mpi,04103
5165,49,jaguar,jaguar,target,lower-right,5kWD3AiL,orderB,1,jaguar,7.64,high,f,5.232032854209446,5,mpi,04103
8289,50,flounder,flounder,target,lower-right,5kWD3AiL,orderB,1,flunder,6.95,high,f,5.232032854209446,5,mpi,04103
11155,51,satellite,satellite,target,upper-left,5kWD3AiL,orderB,1,satellit,8.94,high,f,5.232032854209446,5,mpi,04103
4483,52,zucchini,zucchini,target,upper-right,5kWD3AiL,orderB,1,zucchini,5.95,middle,f,5.232032854209446,5,mpi,04103
4176,1,squirrel,squirrel,target,lower-left,8BF2TQx3,orderA,1,eichhörnchen,2.6,low,m,3.676933607118412,3,mpi,04103
3760,2,cap,cap,target,upper-right,8BF2TQx3,orderA,1,mütze,1.95,low,m,3.676933607118412,3,mpi,04103
3076,3,door,door,target,lower-left,8BF2TQx3,orderA,1,tür,3.12,low,m,3.676933607118412,3,mpi,04103
3081,4,stairs,stairs,target,lower-right,8BF2TQx3,orderA,1,treppe,3.25,low,m,3.676933607118412,3,mpi,04103
7475,5,desk,desk,target,lower-left,8BF2TQx3,orderA,1,schreibtisch,3.2,low,m,3.676933607118412,3,mpi,04103
2895,6,strawberry,strawberry,target,upper-left,8BF2TQx3,orderA,1,erdbeere,3.47,low,m,3.676933607118412,3,mpi,04103
2375,7,eye,eye,target,upper-left,8BF2TQx3,orderA,1,auge,2.69,low,m,3.676933607118412,3,mpi,04103
4208,8,plane,plane,target,lower-left,8BF2TQx3,orderA,1,hobel,7.53,high,m,3.676933607118412,3,mpi,04103
4322,9,paintbrush,paintbrush,target,lower-left,8BF2TQx3,orderA,1,pinsel,3.43,low,m,3.676933607118412,3,mpi,04103
2178,10,telephone,telephone,target,upper-right,8BF2TQx3,orderA,1,telefon,3.53,middle,m,3.676933607118412,3,mpi,04103
2020,11,snake,snake,target,upper-left,8BF2TQx3,orderA,1,schlange,2,low,m,3.676933607118412,3,mpi,04103
1759,12,carrot,carrot,target,lower-right,8BF2TQx3,orderA,1,möhre,3.36,low,m,3.676933607118412,3,mpi,04103
10411,13,star,star,target,upper-left,8BF2TQx3,orderA,1,stern,3.29,low,m,3.676933607118412,3,mpi,04103
4329,14,scissors,scissors,target,upper-right,8BF2TQx3,orderA,1,schere,3.38,low,m,3.676933607118412,3,mpi,04103
7011,15,tiger,tiger,target,upper-right,8BF2TQx3,orderA,1,tiger,3.88,middle,m,3.676933607118412,3,mpi,04103
3816,16,bone,bone,target,lower-right,8BF2TQx3,orderA,1,knochen,4.64,middle,m,3.676933607118412,3,mpi,04103
2145,17,apple,apple,target,upper-left,8BF2TQx3,orderA,1,apfel,2.71,low,m,3.676933607118412,3,mpi,04103
6098,18,fish,fish,target,lower-left,8BF2TQx3,orderA,1,fisch,2.76,low,m,3.676933607118412,3,mpi,04103
2709,19,ant,ant,target,upper-right,8BF2TQx3,orderA,1,ameise,4.6,middle,m,3.676933607118412,3,mpi,04103
6579,20,belt,belt,target,lower-right,8BF2TQx3,orderA,1,gürtel,4.11,middle,m,3.676933607118412,3,mpi,04103
6720,21,fryingpan,fryingpan,target,upper-left,8BF2TQx3,orderA,1,pfanne,4.16,middle,m,3.676933607118412,3,mpi,04103
3259,22,zebra,zebra,target,upper-right,8BF2TQx3,orderA,1,zebra,3.65,middle,m,3.676933607118412,3,mpi,04103
5730,23,needle,needle,target,upper-left,8BF2TQx3,orderA,1,nadel,4.22,middle,m,3.676933607118412,3,mpi,04103
3291,24,bicycle,bicycle,target,upper-right,8BF2TQx3,orderA,1,fahrrad,3.8,middle,m,3.676933607118412,3,mpi,04103
4664,25,ladder,ladder,target,upper-right,8BF2TQx3,orderA,1,leiter,4.47,middle,m,3.676933607118412,3,mpi,04103
2869,26,battery,battery,target,lower-right,8BF2TQx3,orderA,1,batterie,5.94,middle,m,3.676933607118412,3,mpi,04103
4346,27,elk,elk,target,upper-left,8BF2TQx3,orderA,1,elch,6.28,high,m,3.676933607118412,3,mpi,04103
7738,28,choir,keyboard,dist3,lower-left,8BF2TQx3,orderA,0,chor,7.19,high,m,3.676933607118412,3,mpi,04103
2421,29,kangaroo,penguin,dist1,upper-left,8BF2TQx3,orderA,0,känguru,5.89,middle,m,3.676933607118412,3,mpi,04103
4656,30,ventilator,ventilator,target,upper-right,8BF2TQx3,orderA,1,ventilator,6.59,high,m,3.676933607118412,3,mpi,04103
9658,31,arugula,brusselsprouts,dist1,lower-left,8BF2TQx3,orderA,0,rucola,6.18,high,m,3.676933607118412,3,mpi,04103
10506,32,flag,flag,target,lower-right,8BF2TQx3,orderA,1,flagge,5.86,middle,m,3.676933607118412,3,mpi,04103
7067,33,giraffe,giraffe,target,upper-left,8BF2TQx3,orderA,1,giraffe,3.79,middle,m,3.676933607118412,3,mpi,04103
7288,34,palmtree,drinkingstraws,dist2,lower-right,8BF2TQx3,orderA,0,palme,6.57,high,m,3.676933607118412,3,mpi,04103
2106,35,pineapple,pineapple,target,lower-right,8BF2TQx3,orderA,1,ananas,4.1,middle,m,3.676933607118412,3,mpi,04103
6533,36,ocean,river,dist1,lower-left,8BF2TQx3,orderA,0,ozean,6.46,high,m,3.676933607118412,3,mpi,04103
3228,37,gazelle,dragonfly,dist2,upper-left,8BF2TQx3,orderA,0,gazelle,6.31,high,m,3.676933607118412,3,mpi,04103
14493,38,ruler,ruler,target,lower-left,8BF2TQx3,orderA,1,lineal,4.9,middle,m,3.676933607118412,3,mpi,04103
3580,39,badger,badger,target,lower-left,8BF2TQx3,orderA,1,dachs,6.17,high,m,3.676933607118412,3,mpi,04103
13179,40,chanterelle,chanterelle,target,upper-left,8BF2TQx3,orderA,1,pfifferling,7.13,high,m,3.676933607118412,3,mpi,04103
5946,41,ruin,ruin,target,lower-right,8BF2TQx3,orderA,1,ruine,6.21,high,m,3.676933607118412,3,mpi,04103
24872,42,labyrinth,whirlwind,dist2,lower-right,8BF2TQx3,orderA,0,labyrinth,6.63,high,m,3.676933607118412,3,mpi,04103
2952,43,mushroom,mushroom,target,lower-right,8BF2TQx3,orderA,1,pilz,3.67,middle,m,3.676933607118412,3,mpi,04103
8659,44,orchid,banner,dist3,lower-right,8BF2TQx3,orderA,0,orchidee,9.76,high,m,3.676933607118412,3,mpi,04103
10870,45,zucchini,zucchini,target,upper-right,8BF2TQx3,orderA,1,zucchini,5.95,middle,m,3.676933607118412,3,mpi,04103
10119,46,kayak,boomerang,dist3,lower-right,8BF2TQx3,orderA,0,kajak,8.82,high,m,3.676933607118412,3,mpi,04103
7052,47,lobster,microscope,dist3,upper-left,8BF2TQx3,orderA,0,hummer,8,high,m,3.676933607118412,3,mpi,04103
6765,48,jaguar,jaguar,target,lower-right,8BF2TQx3,orderA,1,jaguar,7.64,high,m,3.676933607118412,3,mpi,04103
7757,49,carnation,compass,dist3,upper-left,8BF2TQx3,orderA,0,nelke,7.82,high,m,3.676933607118412,3,mpi,04103
6311,50,satellite,satellite,target,upper-left,8BF2TQx3,orderA,1,satellit,8.94,high,m,3.676933607118412,3,mpi,04103
8127,51,flounder,flounder,target,lower-right,8BF2TQx3,orderA,1,flunder,6.95,high,m,3.676933607118412,3,mpi,04103
5468,52,cello,cello,target,lower-left,8BF2TQx3,orderA,1,cello,8.67,high,m,3.676933607118412,3,mpi,04103
13703,1,squirrel,squirrel,target,lower-left,8QY3biYo,orderA,1,eichhörnchen,2.6,low,m,3.3867214236824092,3,mpi,04103
21363,2,cap,cap,target,upper-right,8QY3biYo,orderA,1,mütze,1.95,low,m,3.3867214236824092,3,mpi,04103
15349,3,door,door,target,lower-left,8QY3biYo,orderA,1,tür,3.12,low,m,3.3867214236824092,3,mpi,04103
22836,4,stairs,stairs,target,lower-right,8QY3biYo,orderA,1,treppe,3.25,low,m,3.3867214236824092,3,mpi,04103
21192,5,desk,desk,target,lower-left,8QY3biYo,orderA,1,schreibtisch,3.2,low,m,3.3867214236824092,3,mpi,04103
22523,6,strawberry,strawberry,target,upper-left,8QY3biYo,orderA,1,erdbeere,3.47,low,m,3.3867214236824092,3,mpi,04103
14264,7,eye,eye,target,upper-left,8QY3biYo,orderA,1,auge,2.69,low,m,3.3867214236824092,3,mpi,04103
8943,8,plane,plane,target,lower-left,8QY3biYo,orderA,1,hobel,7.53,high,m,3.3867214236824092,3,mpi,04103
13549,9,paintbrush,paintbrush,target,lower-left,8QY3biYo,orderA,1,pinsel,3.43,low,m,3.3867214236824092,3,mpi,04103
9999,10,telephone,telephone,target,upper-right,8QY3biYo,orderA,1,telefon,3.53,middle,m,3.3867214236824092,3,mpi,04103
9943,11,snake,snake,target,upper-left,8QY3biYo,orderA,1,schlange,2,low,m,3.3867214236824092,3,mpi,04103
7517,12,carrot,carrot,target,lower-right,8QY3biYo,orderA,1,möhre,3.36,low,m,3.3867214236824092,3,mpi,04103
9003,13,star,star,target,upper-left,8QY3biYo,orderA,1,stern,3.29,low,m,3.3867214236824092,3,mpi,04103
19359,14,scissors,scissors,target,upper-right,8QY3biYo,orderA,1,schere,3.38,low,m,3.3867214236824092,3,mpi,04103
10496,15,tiger,tiger,target,upper-right,8QY3biYo,orderA,1,tiger,3.88,middle,m,3.3867214236824092,3,mpi,04103
9698,16,bone,bone,target,lower-right,8QY3biYo,orderA,1,knochen,4.64,middle,m,3.3867214236824092,3,mpi,04103
17724,17,apple,apple,target,upper-left,8QY3biYo,orderA,1,apfel,2.71,low,m,3.3867214236824092,3,mpi,04103
12145,18,fish,fish,target,lower-left,8QY3biYo,orderA,1,fisch,2.76,low,m,3.3867214236824092,3,mpi,04103
16067,19,ant,ant,target,upper-right,8QY3biYo,orderA,1,ameise,4.6,middle,m,3.3867214236824092,3,mpi,04103
10671,20,belt,belt,target,lower-right,8QY3biYo,orderA,1,gürtel,4.11,middle,m,3.3867214236824092,3,mpi,04103
16531,21,fryingpan,fryingpan,target,upper-left,8QY3biYo,orderA,1,pfanne,4.16,middle,m,3.3867214236824092,3,mpi,04103
12366,22,zebra,zebra,target,upper-right,8QY3biYo,orderA,1,zebra,3.65,middle,m,3.3867214236824092,3,mpi,04103
12194,23,needle,needle,target,upper-left,8QY3biYo,orderA,1,nadel,4.22,middle,m,3.3867214236824092,3,mpi,04103
17301,24,bicycle,bicycle,target,upper-right,8QY3biYo,orderA,1,fahrrad,3.8,middle,m,3.3867214236824092,3,mpi,04103
9646,25,ladder,ladder,target,upper-right,8QY3biYo,orderA,1,leiter,4.47,middle,m,3.3867214236824092,3,mpi,04103
10554,26,battery,battery,target,lower-right,8QY3biYo,orderA,1,batterie,5.94,middle,m,3.3867214236824092,3,mpi,04103
24217,27,elk,elk,target,upper-left,8QY3biYo,orderA,1,elch,6.28,high,m,3.3867214236824092,3,mpi,04103
28573,28,choir,keyboard,dist3,lower-left,8QY3biYo,orderA,0,chor,7.19,high,m,3.3867214236824092,3,mpi,04103
11565,29,kangaroo,kangaroo,target,lower-left,8QY3biYo,orderA,1,känguru,5.89,middle,m,3.3867214236824092,3,mpi,04103
12899,30,ventilator,ventilator,target,upper-right,8QY3biYo,orderA,1,ventilator,6.59,high,m,3.3867214236824092,3,mpi,04103
8820,31,arugula,dracula,dist2,upper-left,8QY3biYo,orderA,0,rucola,6.18,high,m,3.3867214236824092,3,mpi,04103
9678,32,flag,flag,target,lower-right,8QY3biYo,orderA,1,flagge,5.86,middle,m,3.3867214236824092,3,mpi,04103
8516,33,giraffe,giraffe,target,upper-left,8QY3biYo,orderA,1,giraffe,3.79,middle,m,3.3867214236824092,3,mpi,04103
9485,34,palmtree,drinkingstraws,dist2,lower-right,8QY3biYo,orderA,0,palme,6.57,high,m,3.3867214236824092,3,mpi,04103
4736,35,pineapple,pineapple,target,lower-right,8QY3biYo,orderA,1,ananas,4.1,middle,m,3.3867214236824092,3,mpi,04103
5580,36,ocean,pelican,dist2,lower-right,8QY3biYo,orderA,0,ozean,6.46,high,m,3.3867214236824092,3,mpi,04103
16399,37,gazelle,astronaut,dist3,lower-left,8QY3biYo,orderA,0,gazelle,6.31,high,m,3.3867214236824092,3,mpi,04103
14458,38,ruler,ruler,target,lower-left,8QY3biYo,orderA,1,lineal,4.9,middle,m,3.3867214236824092,3,mpi,04103
11382,39,badger,badger,target,lower-left,8QY3biYo,orderA,1,dachs,6.17,high,m,3.3867214236824092,3,mpi,04103
15831,40,chanterelle,chanterelle,target,upper-left,8QY3biYo,orderA,1,pfifferling,7.13,high,m,3.3867214236824092,3,mpi,04103
14306,41,ruin,ruin,target,lower-right,8QY3biYo,orderA,1,ruine,6.21,high,m,3.3867214236824092,3,mpi,04103
7755,42,labyrinth,labyrinth,target,lower-left,8QY3biYo,orderA,1,labyrinth,6.63,high,m,3.3867214236824092,3,mpi,04103
9027,43,mushroom,mushroom,target,lower-right,8QY3biYo,orderA,1,pilz,3.67,middle,m,3.3867214236824092,3,mpi,04103
6802,44,orchid,banner,dist3,lower-right,8QY3biYo,orderA,0,orchidee,9.76,high,m,3.3867214236824092,3,mpi,04103
10065,45,zucchini,zucchini,target,upper-right,8QY3biYo,orderA,1,zucchini,5.95,middle,m,3.3867214236824092,3,mpi,04103
9768,46,kayak,kayak,target,upper-left,8QY3biYo,orderA,1,kajak,8.82,high,m,3.3867214236824092,3,mpi,04103
9644,47,lobster,lobster,target,upper-right,8QY3biYo,orderA,1,hummer,8,high,m,3.3867214236824092,3,mpi,04103
9223,48,jaguar,panther,dist1,lower-left,8QY3biYo,orderA,0,jaguar,7.64,high,m,3.3867214236824092,3,mpi,04103
10742,49,carnation,compass,dist3,upper-left,8QY3biYo,orderA,0,nelke,7.82,high,m,3.3867214236824092,3,mpi,04103
6387,50,satellite,satellite,target,upper-left,8QY3biYo,orderA,1,satellit,8.94,high,m,3.3867214236824092,3,mpi,04103
8027,51,flounder,elderberry,dist2,upper-left,8QY3biYo,orderA,0,flunder,6.95,high,m,3.3867214236824092,3,mpi,04103
17373,52,cello,harp,dist1,lower-right,8QY3biYo,orderA,0,cello,8.67,high,m,3.3867214236824092,3,mpi,04103
6897,1,squirrel,squirrel,target,lower-left,9vnzxiC5,orderA,1,eichhörnchen,2.6,low,m,3.189596167008898,3,mpi,04103
4824,2,cap,cap,target,upper-right,9vnzxiC5,orderA,1,mütze,1.95,low,m,3.189596167008898,3,mpi,04103
4796,3,door,door,target,lower-left,9vnzxiC5,orderA,1,tür,3.12,low,m,3.189596167008898,3,mpi,04103
4025,4,stairs,stairs,target,lower-right,9vnzxiC5,orderA,1,treppe,3.25,low,m,3.189596167008898,3,mpi,04103
4049,5,desk,desk,target,lower-left,9vnzxiC5,orderA,1,schreibtisch,3.2,low,m,3.189596167008898,3,mpi,04103
7027,6,strawberry,strawberry,target,upper-left,9vnzxiC5,orderA,1,erdbeere,3.47,low,m,3.189596167008898,3,mpi,04103
9267,7,eye,comb,dist2,upper-right,9vnzxiC5,orderA,0,auge,2.69,low,m,3.189596167008898,3,mpi,04103
3655,8,plane,plane,target,lower-left,9vnzxiC5,orderA,1,hobel,7.53,high,m,3.189596167008898,3,mpi,04103
7187,9,paintbrush,swing,dist3,upper-right,9vnzxiC5,orderA,0,pinsel,3.43,low,m,3.189596167008898,3,mpi,04103
2339,10,telephone,telephone,target,upper-right,9vnzxiC5,orderA,1,telefon,3.53,middle,m,3.189596167008898,3,mpi,04103
3909,11,snake,snake,target,upper-left,9vnzxiC5,orderA,1,schlange,2,low,m,3.189596167008898,3,mpi,04103
2690,12,carrot,carrot,target,lower-right,9vnzxiC5,orderA,1,möhre,3.36,low,m,3.189596167008898,3,mpi,04103
3375,13,star,star,target,upper-left,9vnzxiC5,orderA,1,stern,3.29,low,m,3.189596167008898,3,mpi,04103
2649,14,scissors,scissors,target,upper-right,9vnzxiC5,orderA,1,schere,3.38,low,m,3.189596167008898,3,mpi,04103
7471,15,tiger,tiger,target,upper-right,9vnzxiC5,orderA,1,tiger,3.88,middle,m,3.189596167008898,3,mpi,04103
6198,16,bone,bone,target,lower-right,9vnzxiC5,orderA,1,knochen,4.64,middle,m,3.189596167008898,3,mpi,04103
6528,17,apple,apple,target,upper-left,9vnzxiC5,orderA,1,apfel,2.71,low,m,3.189596167008898,3,mpi,04103
2891,18,fish,fish,target,lower-left,9vnzxiC5,orderA,1,fisch,2.76,low,m,3.189596167008898,3,mpi,04103
9264,19,ant,cheese,dist3,lower-left,9vnzxiC5,orderA,0,ameise,4.6,middle,m,3.189596167008898,3,mpi,04103
6096,20,belt,belt,target,lower-right,9vnzxiC5,orderA,1,gürtel,4.11,middle,m,3.189596167008898,3,mpi,04103
3972,21,fryingpan,fryingpan,target,upper-left,9vnzxiC5,orderA,1,pfanne,4.16,middle,m,3.189596167008898,3,mpi,04103
9058,22,zebra,zebra,target,upper-right,9vnzxiC5,orderA,1,zebra,3.65,middle,m,3.189596167008898,3,mpi,04103
12077,23,needle,orange,dist2,lower-left,9vnzxiC5,orderA,0,nadel,4.22,middle,m,3.189596167008898,3,mpi,04103
5154,24,bicycle,frog,dist3,upper-left,9vnzxiC5,orderA,0,fahrrad,3.8,middle,m,3.189596167008898,3,mpi,04103
4991,25,ladder,ladder,target,upper-right,9vnzxiC5,orderA,1,leiter,4.47,middle,m,3.189596167008898,3,mpi,04103
3507,26,battery,battery,target,lower-right,9vnzxiC5,orderA,1,batterie,5.94,middle,m,3.189596167008898,3,mpi,04103
4440,27,elk,elk,target,upper-left,9vnzxiC5,orderA,1,elch,6.28,high,m,3.189596167008898,3,mpi,04103
21992,28,choir,pipe,dist2,upper-left,9vnzxiC5,orderA,0,chor,7.19,high,m,3.189596167008898,3,mpi,04103
3869,29,kangaroo,kangaroo,target,lower-left,9vnzxiC5,orderA,1,känguru,5.89,middle,m,3.189596167008898,3,mpi,04103
7491,30,ventilator,ventilator,target,upper-right,9vnzxiC5,orderA,1,ventilator,6.59,high,m,3.189596167008898,3,mpi,04103
14310,31,arugula,brusselsprouts,dist1,lower-left,9vnzxiC5,orderA,0,rucola,6.18,high,m,3.189596167008898,3,mpi,04103
8018,32,flag,flag,target,lower-right,9vnzxiC5,orderA,1,flagge,5.86,middle,m,3.189596167008898,3,mpi,04103
5368,33,giraffe,giraffe,target,upper-left,9vnzxiC5,orderA,1,giraffe,3.79,middle,m,3.189596167008898,3,mpi,04103
17147,34,palmtree,cactus,dist1,upper-right,9vnzxiC5,orderA,0,palme,6.57,high,m,3.189596167008898,3,mpi,04103
3285,35,pineapple,pineapple,target,lower-right,9vnzxiC5,orderA,1,ananas,4.1,middle,m,3.189596167008898,3,mpi,04103
12281,36,ocean,factory,dist3,upper-right,9vnzxiC5,orderA,0,ozean,6.46,high,m,3.189596167008898,3,mpi,04103
19172,37,gazelle,dragonfly,dist2,upper-left,9vnzxiC5,orderA,0,gazelle,6.31,high,m,3.189596167008898,3,mpi,04103
13786,38,ruler,ruler,target,lower-left,9vnzxiC5,orderA,1,lineal,4.9,middle,m,3.189596167008898,3,mpi,04103
8699,39,badger,badger,target,lower-left,9vnzxiC5,orderA,1,dachs,6.17,high,m,3.189596167008898,3,mpi,04103
10069,40,chanterelle,diamond,dist3,upper-right,9vnzxiC5,orderA,0,pfifferling,7.13,high,m,3.189596167008898,3,mpi,04103
13162,41,ruin,ruin,target,lower-right,9vnzxiC5,orderA,1,ruine,6.21,high,m,3.189596167008898,3,mpi,04103
13500,42,labyrinth,trafficjam,dist3,upper-right,9vnzxiC5,orderA,0,labyrinth,6.63,high,m,3.189596167008898,3,mpi,04103
9620,43,mushroom,mushroom,target,lower-right,9vnzxiC5,orderA,1,pilz,3.67,middle,m,3.189596167008898,3,mpi,04103
9529,44,orchid,orchid,target,lower-left,9vnzxiC5,orderA,1,orchidee,9.76,high,m,3.189596167008898,3,mpi,04103
8700,45,zucchini,zucchini,target,upper-right,9vnzxiC5,orderA,1,zucchini,5.95,middle,m,3.189596167008898,3,mpi,04103
10528,46,kayak,boomerang,dist3,lower-right,9vnzxiC5,orderA,0,kajak,8.82,high,m,3.189596167008898,3,mpi,04103
18573,47,lobster,lobster,target,upper-right,9vnzxiC5,orderA,1,hummer,8,high,m,3.189596167008898,3,mpi,04103
11490,48,jaguar,panther,dist1,lower-left,9vnzxiC5,orderA,0,jaguar,7.64,high,m,3.189596167008898,3,mpi,04103
5533,49,carnation,carnation,target,upper-right,9vnzxiC5,orderA,1,nelke,7.82,high,m,3.189596167008898,3,mpi,04103
17114,50,satellite,satellite,target,upper-left,9vnzxiC5,orderA,1,satellit,8.94,high,m,3.189596167008898,3,mpi,04103
8163,51,flounder,flounder,target,lower-right,9vnzxiC5,orderA,1,flunder,6.95,high,m,3.189596167008898,3,mpi,04103
25820,52,cello,cello,target,lower-left,9vnzxiC5,orderA,1,cello,8.67,high,m,3.189596167008898,3,mpi,04103
8094,1,squirrel,squirrel,target,lower-left,aaD3Fzr6,orderA,1,eichhörnchen,2.6,low,m,5.639972621492129,5,mpi,04103
3014,2,cap,cap,target,upper-right,aaD3Fzr6,orderA,1,mütze,1.95,low,m,5.639972621492129,5,mpi,04103
6778,3,door,door,target,lower-left,aaD3Fzr6,orderA,1,tür,3.12,low,m,5.639972621492129,5,mpi,04103
2781,4,stairs,stairs,target,lower-right,aaD3Fzr6,orderA,1,treppe,3.25,low,m,5.639972621492129,5,mpi,04103
9141,5,desk,desk,target,lower-left,aaD3Fzr6,orderA,1,schreibtisch,3.2,low,m,5.639972621492129,5,mpi,04103
2703,6,strawberry,strawberry,target,upper-left,aaD3Fzr6,orderA,1,erdbeere,3.47,low,m,5.639972621492129,5,mpi,04103
1599,7,eye,eye,target,upper-left,aaD3Fzr6,orderA,1,auge,2.69,low,m,5.639972621492129,5,mpi,04103
4602,8,plane,plane,target,lower-left,aaD3Fzr6,orderA,1,hobel,7.53,high,m,5.639972621492129,5,mpi,04103
2775,9,paintbrush,paintbrush,target,lower-left,aaD3Fzr6,orderA,1,pinsel,3.43,low,m,5.639972621492129,5,mpi,04103
2107,10,telephone,telephone,target,upper-right,aaD3Fzr6,orderA,1,telefon,3.53,middle,m,5.639972621492129,5,mpi,04103
2772,11,snake,snake,target,upper-left,aaD3Fzr6,orderA,1,schlange,2,low,m,5.639972621492129,5,mpi,04103
3110,12,carrot,carrot,target,lower-right,aaD3Fzr6,orderA,1,möhre,3.36,low,m,5.639972621492129,5,mpi,04103
1947,13,star,star,target,upper-left,aaD3Fzr6,orderA,1,stern,3.29,low,m,5.639972621492129,5,mpi,04103
1817,14,scissors,scissors,target,upper-right,aaD3Fzr6,orderA,1,schere,3.38,low,m,5.639972621492129,5,mpi,04103
1508,15,tiger,tiger,target,upper-right,aaD3Fzr6,orderA,1,tiger,3.88,middle,m,5.639972621492129,5,mpi,04103
2715,16,bone,bone,target,lower-right,aaD3Fzr6,orderA,1,knochen,4.64,middle,m,5.639972621492129,5,mpi,04103
1629,17,apple,apple,target,upper-left,aaD3Fzr6,orderA,1,apfel,2.71,low,m,5.639972621492129,5,mpi,04103
1888,18,fish,fish,target,lower-left,aaD3Fzr6,orderA,1,fisch,2.76,low,m,5.639972621492129,5,mpi,04103
1448,19,ant,ant,target,upper-right,aaD3Fzr6,orderA,1,ameise,4.6,middle,m,5.639972621492129,5,mpi,04103
1706,20,belt,belt,target,lower-right,aaD3Fzr6,orderA,1,gürtel,4.11,middle,m,5.639972621492129,5,mpi,04103
2596,21,fryingpan,fryingpan,target,upper-left,aaD3Fzr6,orderA,1,pfanne,4.16,middle,m,5.639972621492129,5,mpi,04103
3124,22,zebra,zebra,target,upper-right,aaD3Fzr6,orderA,1,zebra,3.65,middle,m,5.639972621492129,5,mpi,04103
3513,23,needle,needle,target,upper-left,aaD3Fzr6,orderA,1,nadel,4.22,middle,m,5.639972621492129,5,mpi,04103
2827,24,bicycle,bicycle,target,upper-right,aaD3Fzr6,orderA,1,fahrrad,3.8,middle,m,5.639972621492129,5,mpi,04103
3474,25,ladder,ladder,target,upper-right,aaD3Fzr6,orderA,1,leiter,4.47,middle,m,5.639972621492129,5,mpi,04103
3735,26,battery,computer,dist1,upper-left,aaD3Fzr6,orderA,0,batterie,5.94,middle,m,5.639972621492129,5,mpi,04103
2238,27,elk,elk,target,upper-left,aaD3Fzr6,orderA,1,elch,6.28,high,m,5.639972621492129,5,mpi,04103
26249,28,choir,orchestra,dist1,lower-right,aaD3Fzr6,orderA,0,chor,7.19,high,m,5.639972621492129,5,mpi,04103
3838,29,kangaroo,kangaroo,target,lower-left,aaD3Fzr6,orderA,1,känguru,5.89,middle,m,5.639972621492129,5,mpi,04103
5013,30,ventilator,ventilator,target,upper-right,aaD3Fzr6,orderA,1,ventilator,6.59,high,m,5.639972621492129,5,mpi,04103
6188,31,arugula,dracula,dist2,upper-left,aaD3Fzr6,orderA,0,rucola,6.18,high,m,5.639972621492129,5,mpi,04103
5940,32,flag,flag,target,lower-right,aaD3Fzr6,orderA,1,flagge,5.86,middle,m,5.639972621492129,5,mpi,04103
2118,33,giraffe,giraffe,target,upper-left,aaD3Fzr6,orderA,1,giraffe,3.79,middle,m,5.639972621492129,5,mpi,04103
4098,34,palmtree,palmtree,target,lower-left,aaD3Fzr6,orderA,1,palme,6.57,high,m,5.639972621492129,5,mpi,04103
6126,35,pineapple,pineapple,target,lower-right,aaD3Fzr6,orderA,1,ananas,4.1,middle,m,5.639972621492129,5,mpi,04103
10289,36,ocean,ocean,target,upper-left,aaD3Fzr6,orderA,1,ozean,6.46,high,m,5.639972621492129,5,mpi,04103
13105,37,gazelle,gazelle,target,lower-right,aaD3Fzr6,orderA,1,gazelle,6.31,high,m,5.639972621492129,5,mpi,04103
3959,38,ruler,ruler,target,lower-left,aaD3Fzr6,orderA,1,lineal,4.9,middle,m,5.639972621492129,5,mpi,04103
4177,39,badger,badger,target,lower-left,aaD3Fzr6,orderA,1,dachs,6.17,high,m,5.639972621492129,5,mpi,04103
10250,40,chanterelle,chanterelle,target,upper-left,aaD3Fzr6,orderA,1,pfifferling,7.13,high,m,5.639972621492129,5,mpi,04103
6546,41,ruin,ruin,target,lower-right,aaD3Fzr6,orderA,1,ruine,6.21,high,m,5.639972621492129,5,mpi,04103
5854,42,labyrinth,labyrinth,target,lower-left,aaD3Fzr6,orderA,1,labyrinth,6.63,high,m,5.639972621492129,5,mpi,04103
2059,43,mushroom,mushroom,target,lower-right,aaD3Fzr6,orderA,1,pilz,3.67,middle,m,5.639972621492129,5,mpi,04103
5652,44,orchid,orchid,target,lower-left,aaD3Fzr6,orderA,1,orchidee,9.76,high,m,5.639972621492129,5,mpi,04103
5594,45,zucchini,zucchini,target,upper-right,aaD3Fzr6,orderA,1,zucchini,5.95,middle,m,5.639972621492129,5,mpi,04103
9846,46,kayak,kayak,target,upper-left,aaD3Fzr6,orderA,1,kajak,8.82,high,m,5.639972621492129,5,mpi,04103
7097,47,lobster,lobster,target,upper-right,aaD3Fzr6,orderA,1,hummer,8,high,m,5.639972621492129,5,mpi,04103
3093,48,jaguar,jaguar,target,lower-right,aaD3Fzr6,orderA,1,jaguar,7.64,high,m,5.639972621492129,5,mpi,04103
16101,49,carnation,carnation,target,upper-right,aaD3Fzr6,orderA,1,nelke,7.82,high,m,5.639972621492129,5,mpi,04103
9899,50,satellite,satellite,target,upper-left,aaD3Fzr6,orderA,1,satellit,8.94,high,m,5.639972621492129,5,mpi,04103
13860,51,flounder,elderberry,dist2,upper-left,aaD3Fzr6,orderA,0,flunder,6.95,high,m,5.639972621492129,5,mpi,04103
21514,52,cello,harp,dist1,lower-right,aaD3Fzr6,orderA,0,cello,8.67,high,m,5.639972621492129,5,mpi,04103
4329,1,door,door,target,lower-left,aecwC2Qa,orderB,1,tür,3.12,low,m,5.817932922655715,5,mpi,04103
3698,2,stairs,stairs,target,lower-right,aecwC2Qa,orderB,1,treppe,3.25,low,m,5.817932922655715,5,mpi,04103
3765,3,eye,eye,target,upper-left,aecwC2Qa,orderB,1,auge,2.69,low,m,5.817932922655715,5,mpi,04103
3567,4,desk,desk,target,lower-left,aecwC2Qa,orderB,1,schreibtisch,3.2,low,m,5.817932922655715,5,mpi,04103
2951,5,star,star,target,upper-left,aecwC2Qa,orderB,1,stern,3.29,low,m,5.817932922655715,5,mpi,04103
2096,6,squirrel,squirrel,target,lower-left,aecwC2Qa,orderB,1,eichhörnchen,2.6,low,m,5.817932922655715,5,mpi,04103
2463,7,cap,cap,target,upper-right,aecwC2Qa,orderB,1,mütze,1.95,low,m,5.817932922655715,5,mpi,04103
2397,8,telephone,telephone,target,upper-right,aecwC2Qa,orderB,1,telefon,3.53,middle,m,5.817932922655715,5,mpi,04103
2583,9,strawberry,strawberry,target,upper-left,aecwC2Qa,orderB,1,erdbeere,3.47,low,m,5.817932922655715,5,mpi,04103
2067,10,scissors,scissors,target,upper-right,aecwC2Qa,orderB,1,schere,3.38,low,m,5.817932922655715,5,mpi,04103
4283,11,bone,bone,target,lower-right,aecwC2Qa,orderB,1,knochen,4.64,middle,m,5.817932922655715,5,mpi,04103
8068,12,paintbrush,paintbrush,target,lower-left,aecwC2Qa,orderB,1,pinsel,3.43,low,m,5.817932922655715,5,mpi,04103
10302,13,fryingpan,fryingpan,target,upper-left,aecwC2Qa,orderB,1,pfanne,4.16,middle,m,5.817932922655715,5,mpi,04103
2215,14,carrot,carrot,target,lower-right,aecwC2Qa,orderB,1,möhre,3.36,low,m,5.817932922655715,5,mpi,04103
2431,15,plane,plane,target,lower-left,aecwC2Qa,orderB,1,hobel,7.53,high,m,5.817932922655715,5,mpi,04103
3767,16,tiger,tiger,target,upper-right,aecwC2Qa,orderB,1,tiger,3.88,middle,m,5.817932922655715,5,mpi,04103
4381,17,snake,snake,target,upper-left,aecwC2Qa,orderB,1,schlange,2,low,m,5.817932922655715,5,mpi,04103
2413,18,apple,apple,target,upper-left,aecwC2Qa,orderB,1,apfel,2.71,low,m,5.817932922655715,5,mpi,04103
5001,19,battery,battery,target,lower-right,aecwC2Qa,orderB,1,batterie,5.94,middle,m,5.817932922655715,5,mpi,04103
3132,20,flag,flag,target,lower-right,aecwC2Qa,orderB,1,flagge,5.86,middle,m,5.817932922655715,5,mpi,04103
3812,21,ladder,ladder,target,upper-right,aecwC2Qa,orderB,1,leiter,4.47,middle,m,5.817932922655715,5,mpi,04103
2868,22,fish,fish,target,lower-left,aecwC2Qa,orderB,1,fisch,2.76,low,m,5.817932922655715,5,mpi,04103
3451,23,giraffe,giraffe,target,upper-left,aecwC2Qa,orderB,1,giraffe,3.79,middle,m,5.817932922655715,5,mpi,04103
3284,24,ant,ant,target,upper-right,aecwC2Qa,orderB,1,ameise,4.6,middle,m,5.817932922655715,5,mpi,04103
3390,25,bicycle,bicycle,target,upper-right,aecwC2Qa,orderB,1,fahrrad,3.8,middle,m,5.817932922655715,5,mpi,04103
14212,26,ruin,ruin,target,lower-right,aecwC2Qa,orderB,1,ruine,6.21,high,m,5.817932922655715,5,mpi,04103
5381,27,choir,orchestra,dist1,lower-right,aecwC2Qa,orderB,0,chor,7.19,high,m,5.817932922655715,5,mpi,04103
6470,28,pineapple,pineapple,target,lower-right,aecwC2Qa,orderB,1,ananas,4.1,middle,m,5.817932922655715,5,mpi,04103
2263,29,zebra,zebra,target,upper-right,aecwC2Qa,orderB,1,zebra,3.65,middle,m,5.817932922655715,5,mpi,04103
3232,30,belt,belt,target,lower-right,aecwC2Qa,orderB,1,gürtel,4.11,middle,m,5.817932922655715,5,mpi,04103
2398,31,mushroom,mushroom,target,lower-right,aecwC2Qa,orderB,1,pilz,3.67,middle,m,5.817932922655715,5,mpi,04103
3787,32,elk,elk,target,upper-left,aecwC2Qa,orderB,1,elch,6.28,high,m,5.817932922655715,5,mpi,04103
2496,33,needle,needle,target,upper-left,aecwC2Qa,orderB,1,nadel,4.22,middle,m,5.817932922655715,5,mpi,04103
5752,34,arugula,arugula,target,lower-right,aecwC2Qa,orderB,1,rucola,6.18,high,m,5.817932922655715,5,mpi,04103
2848,35,palmtree,palmtree,target,lower-left,aecwC2Qa,orderB,1,palme,6.57,high,m,5.817932922655715,5,mpi,04103
2249,36,kangaroo,kangaroo,target,lower-left,aecwC2Qa,orderB,1,känguru,5.89,middle,m,5.817932922655715,5,mpi,04103
8040,37,gazelle,dragonfly,dist2,upper-left,aecwC2Qa,orderB,0,gazelle,6.31,high,m,5.817932922655715,5,mpi,04103
2748,38,badger,badger,target,lower-left,aecwC2Qa,orderB,1,dachs,6.17,high,m,5.817932922655715,5,mpi,04103
2765,39,chanterelle,chanterelle,target,upper-left,aecwC2Qa,orderB,1,pfifferling,7.13,high,m,5.817932922655715,5,mpi,04103
3402,40,orchid,orchid,target,lower-left,aecwC2Qa,orderB,1,orchidee,9.76,high,m,5.817932922655715,5,mpi,04103
7619,41,carnation,violets,dist1,lower-right,aecwC2Qa,orderB,0,nelke,7.82,high,m,5.817932922655715,5,mpi,04103
2532,42,ventilator,ventilator,target,upper-right,aecwC2Qa,orderB,1,ventilator,6.59,high,m,5.817932922655715,5,mpi,04103
4268,43,labyrinth,labyrinth,target,lower-left,aecwC2Qa,orderB,1,labyrinth,6.63,high,m,5.817932922655715,5,mpi,04103
4483,44,ocean,ocean,target,upper-left,aecwC2Qa,orderB,1,ozean,6.46,high,m,5.817932922655715,5,mpi,04103
18964,45,lobster,lobster,target,upper-right,aecwC2Qa,orderB,1,hummer,8,high,m,5.817932922655715,5,mpi,04103
7882,46,cello,harp,dist1,lower-right,aecwC2Qa,orderB,0,cello,8.67,high,m,5.817932922655715,5,mpi,04103
5285,47,kayak,kayak,target,upper-left,aecwC2Qa,orderB,1,kajak,8.82,high,m,5.817932922655715,5,mpi,04103
3535,48,ruler,ruler,target,lower-left,aecwC2Qa,orderB,1,lineal,4.9,middle,m,5.817932922655715,5,mpi,04103
3397,49,jaguar,panther,dist1,lower-left,aecwC2Qa,orderB,0,jaguar,7.64,high,m,5.817932922655715,5,mpi,04103
7256,50,flounder,elderberry,dist2,upper-left,aecwC2Qa,orderB,0,flunder,6.95,high,m,5.817932922655715,5,mpi,04103
11589,51,satellite,meteorid,dist2,lower-right,aecwC2Qa,orderB,0,satellit,8.94,high,m,5.817932922655715,5,mpi,04103
2881,52,zucchini,zucchini,target,upper-right,aecwC2Qa,orderB,1,zucchini,5.95,middle,m,5.817932922655715,5,mpi,04103
4979,1,squirrel,squirrel,target,lower-left,Ap1nEuUT,orderA,1,eichhörnchen,2.6,low,f,3.7371663244353184,3,mpi,04103
3530,2,cap,cap,target,upper-right,Ap1nEuUT,orderA,1,mütze,1.95,low,f,3.7371663244353184,3,mpi,04103
2741,3,door,door,target,lower-left,Ap1nEuUT,orderA,1,tür,3.12,low,f,3.7371663244353184,3,mpi,04103
3087,4,stairs,stairs,target,lower-right,Ap1nEuUT,orderA,1,treppe,3.25,low,f,3.7371663244353184,3,mpi,04103
4349,5,desk,desk,target,lower-left,Ap1nEuUT,orderA,1,schreibtisch,3.2,low,f,3.7371663244353184,3,mpi,04103
2050,6,strawberry,strawberry,target,upper-left,Ap1nEuUT,orderA,1,erdbeere,3.47,low,f,3.7371663244353184,3,mpi,04103
1767,7,eye,eye,target,upper-left,Ap1nEuUT,orderA,1,auge,2.69,low,f,3.7371663244353184,3,mpi,04103
2575,8,plane,plane,target,lower-left,Ap1nEuUT,orderA,1,hobel,7.53,high,f,3.7371663244353184,3,mpi,04103
2635,9,paintbrush,paintbrush,target,lower-left,Ap1nEuUT,orderA,1,pinsel,3.43,low,f,3.7371663244353184,3,mpi,04103
1846,10,telephone,telephone,target,upper-right,Ap1nEuUT,orderA,1,telefon,3.53,middle,f,3.7371663244353184,3,mpi,04103
2182,11,snake,snake,target,upper-left,Ap1nEuUT,orderA,1,schlange,2,low,f,3.7371663244353184,3,mpi,04103
4042,12,carrot,carrot,target,lower-right,Ap1nEuUT,orderA,1,möhre,3.36,low,f,3.7371663244353184,3,mpi,04103
1840,13,star,star,target,upper-left,Ap1nEuUT,orderA,1,stern,3.29,low,f,3.7371663244353184,3,mpi,04103
2133,14,scissors,scissors,target,upper-right,Ap1nEuUT,orderA,1,schere,3.38,low,f,3.7371663244353184,3,mpi,04103
1583,15,tiger,tiger,target,upper-right,Ap1nEuUT,orderA,1,tiger,3.88,middle,f,3.7371663244353184,3,mpi,04103
3474,16,bone,bone,target,lower-right,Ap1nEuUT,orderA,1,knochen,4.64,middle,f,3.7371663244353184,3,mpi,04103
1506,17,apple,apple,target,upper-left,Ap1nEuUT,orderA,1,apfel,2.71,low,f,3.7371663244353184,3,mpi,04103
2726,18,fish,fish,target,lower-left,Ap1nEuUT,orderA,1,fisch,2.76,low,f,3.7371663244353184,3,mpi,04103
3353,19,ant,ant,target,upper-right,Ap1nEuUT,orderA,1,ameise,4.6,middle,f,3.7371663244353184,3,mpi,04103
1805,20,belt,belt,target,lower-right,Ap1nEuUT,orderA,1,gürtel,4.11,middle,f,3.7371663244353184,3,mpi,04103
3842,21,fryingpan,fryingpan,target,upper-left,Ap1nEuUT,orderA,1,pfanne,4.16,middle,f,3.7371663244353184,3,mpi,04103
3213,22,zebra,zebra,target,upper-right,Ap1nEuUT,orderA,1,zebra,3.65,middle,f,3.7371663244353184,3,mpi,04103
5511,23,needle,needle,target,upper-left,Ap1nEuUT,orderA,1,nadel,4.22,middle,f,3.7371663244353184,3,mpi,04103
2660,24,bicycle,bicycle,target,upper-right,Ap1nEuUT,orderA,1,fahrrad,3.8,middle,f,3.7371663244353184,3,mpi,04103
2917,25,ladder,ladder,target,upper-right,Ap1nEuUT,orderA,1,leiter,4.47,middle,f,3.7371663244353184,3,mpi,04103
3211,26,battery,battery,target,lower-right,Ap1nEuUT,orderA,1,batterie,5.94,middle,f,3.7371663244353184,3,mpi,04103
7066,27,elk,elk,target,upper-left,Ap1nEuUT,orderA,1,elch,6.28,high,f,3.7371663244353184,3,mpi,04103
29953,28,choir,pipe,dist2,upper-left,Ap1nEuUT,orderA,0,chor,7.19,high,f,3.7371663244353184,3,mpi,04103
1896,29,kangaroo,kangaroo,target,lower-left,Ap1nEuUT,orderA,1,känguru,5.89,middle,f,3.7371663244353184,3,mpi,04103
13061,30,ventilator,ventilator,target,upper-right,Ap1nEuUT,orderA,1,ventilator,6.59,high,f,3.7371663244353184,3,mpi,04103
9119,31,arugula,dracula,dist2,upper-left,Ap1nEuUT,orderA,0,rucola,6.18,high,f,3.7371663244353184,3,mpi,04103
5495,32,flag,flag,target,lower-right,Ap1nEuUT,orderA,1,flagge,5.86,middle,f,3.7371663244353184,3,mpi,04103
2585,33,giraffe,giraffe,target,upper-left,Ap1nEuUT,orderA,1,giraffe,3.79,middle,f,3.7371663244353184,3,mpi,04103
2913,34,palmtree,palmtree,target,lower-left,Ap1nEuUT,orderA,1,palme,6.57,high,f,3.7371663244353184,3,mpi,04103
5416,35,pineapple,pineapple,target,lower-right,Ap1nEuUT,orderA,1,ananas,4.1,middle,f,3.7371663244353184,3,mpi,04103
13729,36,ocean,river,dist1,lower-left,Ap1nEuUT,orderA,0,ozean,6.46,high,f,3.7371663244353184,3,mpi,04103
16241,37,gazelle,gazelle,target,lower-right,Ap1nEuUT,orderA,1,gazelle,6.31,high,f,3.7371663244353184,3,mpi,04103
9353,38,ruler,ruler,target,lower-left,Ap1nEuUT,orderA,1,lineal,4.9,middle,f,3.7371663244353184,3,mpi,04103
4756,39,badger,badger,target,lower-left,Ap1nEuUT,orderA,1,dachs,6.17,high,f,3.7371663244353184,3,mpi,04103
8495,40,chanterelle,chanterelle,target,upper-left,Ap1nEuUT,orderA,1,pfifferling,7.13,high,f,3.7371663244353184,3,mpi,04103
14106,41,ruin,ruin,target,lower-right,Ap1nEuUT,orderA,1,ruine,6.21,high,f,3.7371663244353184,3,mpi,04103
4995,42,labyrinth,labyrinth,target,lower-left,Ap1nEuUT,orderA,1,labyrinth,6.63,high,f,3.7371663244353184,3,mpi,04103
3287,43,mushroom,mushroom,target,lower-right,Ap1nEuUT,orderA,1,pilz,3.67,middle,f,3.7371663244353184,3,mpi,04103
65874,44,orchid,orchid,target,lower-left,Ap1nEuUT,orderA,1,orchidee,9.76,high,f,3.7371663244353184,3,mpi,04103
4989,45,zucchini,zucchini,target,upper-right,Ap1nEuUT,orderA,1,zucchini,5.95,middle,f,3.7371663244353184,3,mpi,04103
6226,46,kayak,boomerang,dist3,lower-right,Ap1nEuUT,orderA,0,kajak,8.82,high,f,3.7371663244353184,3,mpi,04103
4887,47,lobster,lobster,target,upper-right,Ap1nEuUT,orderA,1,hummer,8,high,f,3.7371663244353184,3,mpi,04103
91371,48,jaguar,panther,dist1,lower-left,Ap1nEuUT,orderA,0,jaguar,7.64,high,f,3.7371663244353184,3,mpi,04103
8989,49,carnation,compass,dist3,upper-left,Ap1nEuUT,orderA,0,nelke,7.82,high,f,3.7371663244353184,3,mpi,04103
5209,50,satellite,meteorid,dist2,lower-right,Ap1nEuUT,orderA,0,satellit,8.94,high,f,3.7371663244353184,3,mpi,04103
4573,51,flounder,flounder,target,lower-right,Ap1nEuUT,orderA,1,flunder,6.95,high,f,3.7371663244353184,3,mpi,04103
6961,52,cello,harp,dist1,lower-right,Ap1nEuUT,orderA,0,cello,8.67,high,f,3.7371663244353184,3,mpi,04103
10121,1,door,door,target,lower-left,B4LEmtRQ,orderB,1,tür,3.12,low,f,3.4250513347022586,3,mpi,04103
4083,2,stairs,stairs,target,lower-right,B4LEmtRQ,orderB,1,treppe,3.25,low,f,3.4250513347022586,3,mpi,04103
6155,3,eye,eye,target,upper-left,B4LEmtRQ,orderB,1,auge,2.69,low,f,3.4250513347022586,3,mpi,04103
4260,4,desk,desk,target,lower-left,B4LEmtRQ,orderB,1,schreibtisch,3.2,low,f,3.4250513347022586,3,mpi,04103
2889,5,star,star,target,upper-left,B4LEmtRQ,orderB,1,stern,3.29,low,f,3.4250513347022586,3,mpi,04103
2384,6,squirrel,squirrel,target,lower-left,B4LEmtRQ,orderB,1,eichhörnchen,2.6,low,f,3.4250513347022586,3,mpi,04103
3840,7,cap,cap,target,upper-right,B4LEmtRQ,orderB,1,mütze,1.95,low,f,3.4250513347022586,3,mpi,04103
2408,8,telephone,telephone,target,upper-right,B4LEmtRQ,orderB,1,telefon,3.53,middle,f,3.4250513347022586,3,mpi,04103
3359,9,strawberry,strawberry,target,upper-left,B4LEmtRQ,orderB,1,erdbeere,3.47,low,f,3.4250513347022586,3,mpi,04103
4084,10,scissors,scissors,target,upper-right,B4LEmtRQ,orderB,1,schere,3.38,low,f,3.4250513347022586,3,mpi,04103
2580,11,bone,bone,target,lower-right,B4LEmtRQ,orderB,1,knochen,4.64,middle,f,3.4250513347022586,3,mpi,04103
3469,12,paintbrush,paintbrush,target,lower-left,B4LEmtRQ,orderB,1,pinsel,3.43,low,f,3.4250513347022586,3,mpi,04103
4396,13,fryingpan,fryingpan,target,upper-left,B4LEmtRQ,orderB,1,pfanne,4.16,middle,f,3.4250513347022586,3,mpi,04103
5042,14,carrot,carrot,target,lower-right,B4LEmtRQ,orderB,1,möhre,3.36,low,f,3.4250513347022586,3,mpi,04103
2778,15,plane,plane,target,lower-left,B4LEmtRQ,orderB,1,hobel,7.53,high,f,3.4250513347022586,3,mpi,04103
4120,16,tiger,tiger,target,upper-right,B4LEmtRQ,orderB,1,tiger,3.88,middle,f,3.4250513347022586,3,mpi,04103
2643,17,snake,snake,target,upper-left,B4LEmtRQ,orderB,1,schlange,2,low,f,3.4250513347022586,3,mpi,04103
2328,18,apple,apple,target,upper-left,B4LEmtRQ,orderB,1,apfel,2.71,low,f,3.4250513347022586,3,mpi,04103
4913,19,battery,battery,target,lower-right,B4LEmtRQ,orderB,1,batterie,5.94,middle,f,3.4250513347022586,3,mpi,04103
9336,20,flag,flag,target,lower-right,B4LEmtRQ,orderB,1,flagge,5.86,middle,f,3.4250513347022586,3,mpi,04103
3596,21,ladder,ladder,target,upper-right,B4LEmtRQ,orderB,1,leiter,4.47,middle,f,3.4250513347022586,3,mpi,04103
3698,22,fish,fish,target,lower-left,B4LEmtRQ,orderB,1,fisch,2.76,low,f,3.4250513347022586,3,mpi,04103
3910,23,giraffe,giraffe,target,upper-left,B4LEmtRQ,orderB,1,giraffe,3.79,middle,f,3.4250513347022586,3,mpi,04103
3463,24,ant,ant,target,upper-right,B4LEmtRQ,orderB,1,ameise,4.6,middle,f,3.4250513347022586,3,mpi,04103
3446,25,bicycle,bicycle,target,upper-right,B4LEmtRQ,orderB,1,fahrrad,3.8,middle,f,3.4250513347022586,3,mpi,04103
13125,26,ruin,ruin,target,lower-right,B4LEmtRQ,orderB,1,ruine,6.21,high,f,3.4250513347022586,3,mpi,04103
5308,27,choir,choir,target,upper-right,B4LEmtRQ,orderB,1,chor,7.19,high,f,3.4250513347022586,3,mpi,04103
3167,28,pineapple,pineapple,target,lower-right,B4LEmtRQ,orderB,1,ananas,4.1,middle,f,3.4250513347022586,3,mpi,04103
2699,29,zebra,zebra,target,upper-right,B4LEmtRQ,orderB,1,zebra,3.65,middle,f,3.4250513347022586,3,mpi,04103
2386,30,belt,belt,target,lower-right,B4LEmtRQ,orderB,1,gürtel,4.11,middle,f,3.4250513347022586,3,mpi,04103
2361,31,mushroom,mushroom,target,lower-right,B4LEmtRQ,orderB,1,pilz,3.67,middle,f,3.4250513347022586,3,mpi,04103
3803,32,elk,elk,target,upper-left,B4LEmtRQ,orderB,1,elch,6.28,high,f,3.4250513347022586,3,mpi,04103
2979,33,needle,needle,target,upper-left,B4LEmtRQ,orderB,1,nadel,4.22,middle,f,3.4250513347022586,3,mpi,04103
6318,34,arugula,arugula,target,lower-right,B4LEmtRQ,orderB,1,rucola,6.18,high,f,3.4250513347022586,3,mpi,04103
8424,35,palmtree,palmtree,target,lower-left,B4LEmtRQ,orderB,1,palme,6.57,high,f,3.4250513347022586,3,mpi,04103
3791,36,kangaroo,kangaroo,target,lower-left,B4LEmtRQ,orderB,1,känguru,5.89,middle,f,3.4250513347022586,3,mpi,04103
6653,37,gazelle,gazelle,target,lower-right,B4LEmtRQ,orderB,1,gazelle,6.31,high,f,3.4250513347022586,3,mpi,04103
4427,38,badger,badger,target,lower-left,B4LEmtRQ,orderB,1,dachs,6.17,high,f,3.4250513347022586,3,mpi,04103
5378,39,chanterelle,chanterelle,target,upper-left,B4LEmtRQ,orderB,1,pfifferling,7.13,high,f,3.4250513347022586,3,mpi,04103
5335,40,orchid,orchid,target,lower-left,B4LEmtRQ,orderB,1,orchidee,9.76,high,f,3.4250513347022586,3,mpi,04103
4110,41,carnation,carnation,target,upper-right,B4LEmtRQ,orderB,1,nelke,7.82,high,f,3.4250513347022586,3,mpi,04103
4120,42,ventilator,ventilator,target,upper-right,B4LEmtRQ,orderB,1,ventilator,6.59,high,f,3.4250513347022586,3,mpi,04103
5411,43,labyrinth,labyrinth,target,lower-left,B4LEmtRQ,orderB,1,labyrinth,6.63,high,f,3.4250513347022586,3,mpi,04103
4169,44,ocean,ocean,target,upper-left,B4LEmtRQ,orderB,1,ozean,6.46,high,f,3.4250513347022586,3,mpi,04103
4276,45,lobster,lobster,target,upper-right,B4LEmtRQ,orderB,1,hummer,8,high,f,3.4250513347022586,3,mpi,04103
5933,46,cello,cello,target,lower-left,B4LEmtRQ,orderB,1,cello,8.67,high,f,3.4250513347022586,3,mpi,04103
4909,47,kayak,kayak,target,upper-left,B4LEmtRQ,orderB,1,kajak,8.82,high,f,3.4250513347022586,3,mpi,04103
5559,48,ruler,ruler,target,lower-left,B4LEmtRQ,orderB,1,lineal,4.9,middle,f,3.4250513347022586,3,mpi,04103
4185,49,jaguar,panther,dist1,lower-left,B4LEmtRQ,orderB,0,jaguar,7.64,high,f,3.4250513347022586,3,mpi,04103
6169,50,flounder,flounder,target,lower-right,B4LEmtRQ,orderB,1,flunder,6.95,high,f,3.4250513347022586,3,mpi,04103
6019,51,satellite,satellite,target,upper-left,B4LEmtRQ,orderB,1,satellit,8.94,high,f,3.4250513347022586,3,mpi,04103
5529,52,zucchini,zucchini,target,upper-right,B4LEmtRQ,orderB,1,zucchini,5.95,middle,f,3.4250513347022586,3,mpi,04103
3498,1,door,door,target,lower-left,bHdRvq6u,orderB,1,tür,3.12,low,m,5.333333333333333,5,mpi,04103
3644,2,stairs,stairs,target,lower-right,bHdRvq6u,orderB,1,treppe,3.25,low,m,5.333333333333333,5,mpi,04103
3743,3,eye,eye,target,upper-left,bHdRvq6u,orderB,1,auge,2.69,low,m,5.333333333333333,5,mpi,04103
3938,4,desk,desk,target,lower-left,bHdRvq6u,orderB,1,schreibtisch,3.2,low,m,5.333333333333333,5,mpi,04103
2808,5,star,star,target,upper-left,bHdRvq6u,orderB,1,stern,3.29,low,m,5.333333333333333,5,mpi,04103
2286,6,squirrel,squirrel,target,lower-left,bHdRvq6u,orderB,1,eichhörnchen,2.6,low,m,5.333333333333333,5,mpi,04103
2384,7,cap,cap,target,upper-right,bHdRvq6u,orderB,1,mütze,1.95,low,m,5.333333333333333,5,mpi,04103
2126,8,telephone,telephone,target,upper-right,bHdRvq6u,orderB,1,telefon,3.53,middle,m,5.333333333333333,5,mpi,04103
2271,9,strawberry,strawberry,target,upper-left,bHdRvq6u,orderB,1,erdbeere,3.47,low,m,5.333333333333333,5,mpi,04103
1950,10,scissors,scissors,target,upper-right,bHdRvq6u,orderB,1,schere,3.38,low,m,5.333333333333333,5,mpi,04103
2427,11,bone,bone,target,lower-right,bHdRvq6u,orderB,1,knochen,4.64,middle,m,5.333333333333333,5,mpi,04103
2377,12,paintbrush,paintbrush,target,lower-left,bHdRvq6u,orderB,1,pinsel,3.43,low,m,5.333333333333333,5,mpi,04103
4525,13,fryingpan,fryingpan,target,upper-left,bHdRvq6u,orderB,1,pfanne,4.16,middle,m,5.333333333333333,5,mpi,04103
2535,14,carrot,carrot,target,lower-right,bHdRvq6u,orderB,1,möhre,3.36,low,m,5.333333333333333,5,mpi,04103
1963,15,plane,plane,target,lower-left,bHdRvq6u,orderB,1,hobel,7.53,high,m,5.333333333333333,5,mpi,04103
1989,16,tiger,tiger,target,upper-right,bHdRvq6u,orderB,1,tiger,3.88,middle,m,5.333333333333333,5,mpi,04103
1949,17,snake,snake,target,upper-left,bHdRvq6u,orderB,1,schlange,2,low,m,5.333333333333333,5,mpi,04103
1885,18,apple,apple,target,upper-left,bHdRvq6u,orderB,1,apfel,2.71,low,m,5.333333333333333,5,mpi,04103
3503,19,battery,battery,target,lower-right,bHdRvq6u,orderB,1,batterie,5.94,middle,m,5.333333333333333,5,mpi,04103
2315,20,flag,flag,target,lower-right,bHdRvq6u,orderB,1,flagge,5.86,middle,m,5.333333333333333,5,mpi,04103
4640,21,ladder,ladder,target,upper-right,bHdRvq6u,orderB,1,leiter,4.47,middle,m,5.333333333333333,5,mpi,04103
2889,22,fish,fish,target,lower-left,bHdRvq6u,orderB,1,fisch,2.76,low,m,5.333333333333333,5,mpi,04103
6624,23,giraffe,giraffe,target,upper-left,bHdRvq6u,orderB,1,giraffe,3.79,middle,m,5.333333333333333,5,mpi,04103
3053,24,ant,ant,target,upper-right,bHdRvq6u,orderB,1,ameise,4.6,middle,m,5.333333333333333,5,mpi,04103
2995,25,bicycle,bicycle,target,upper-right,bHdRvq6u,orderB,1,fahrrad,3.8,middle,m,5.333333333333333,5,mpi,04103
11618,26,ruin,ruin,target,lower-right,bHdRvq6u,orderB,1,ruine,6.21,high,m,5.333333333333333,5,mpi,04103
5664,27,choir,pipe,dist2,upper-left,bHdRvq6u,orderB,0,chor,7.19,high,m,5.333333333333333,5,mpi,04103
2120,28,pineapple,pineapple,target,lower-right,bHdRvq6u,orderB,1,ananas,4.1,middle,m,5.333333333333333,5,mpi,04103
2432,29,zebra,zebra,target,upper-right,bHdRvq6u,orderB,1,zebra,3.65,middle,m,5.333333333333333,5,mpi,04103
2592,30,belt,belt,target,lower-right,bHdRvq6u,orderB,1,gürtel,4.11,middle,m,5.333333333333333,5,mpi,04103
2399,31,mushroom,mushroom,target,lower-right,bHdRvq6u,orderB,1,pilz,3.67,middle,m,5.333333333333333,5,mpi,04103
4556,32,elk,elk,target,upper-left,bHdRvq6u,orderB,1,elch,6.28,high,m,5.333333333333333,5,mpi,04103
3310,33,needle,needle,target,upper-left,bHdRvq6u,orderB,1,nadel,4.22,middle,m,5.333333333333333,5,mpi,04103
6527,34,arugula,arugula,target,lower-right,bHdRvq6u,orderB,1,rucola,6.18,high,m,5.333333333333333,5,mpi,04103
5179,35,palmtree,palmtree,target,lower-left,bHdRvq6u,orderB,1,palme,6.57,high,m,5.333333333333333,5,mpi,04103
1940,36,kangaroo,kangaroo,target,lower-left,bHdRvq6u,orderB,1,känguru,5.89,middle,m,5.333333333333333,5,mpi,04103
8469,37,gazelle,dragonfly,dist2,upper-left,bHdRvq6u,orderB,0,gazelle,6.31,high,m,5.333333333333333,5,mpi,04103
2877,38,badger,badger,target,lower-left,bHdRvq6u,orderB,1,dachs,6.17,high,m,5.333333333333333,5,mpi,04103
4551,39,chanterelle,chanterelle,target,upper-left,bHdRvq6u,orderB,1,pfifferling,7.13,high,m,5.333333333333333,5,mpi,04103
7913,40,orchid,shrub,dist1,upper-left,bHdRvq6u,orderB,0,orchidee,9.76,high,m,5.333333333333333,5,mpi,04103
5131,41,carnation,carnation,target,upper-right,bHdRvq6u,orderB,1,nelke,7.82,high,m,5.333333333333333,5,mpi,04103
2564,42,ventilator,ventilator,target,upper-right,bHdRvq6u,orderB,1,ventilator,6.59,high,m,5.333333333333333,5,mpi,04103
3595,43,labyrinth,labyrinth,target,lower-left,bHdRvq6u,orderB,1,labyrinth,6.63,high,m,5.333333333333333,5,mpi,04103
2593,44,ocean,ocean,target,upper-left,bHdRvq6u,orderB,1,ozean,6.46,high,m,5.333333333333333,5,mpi,04103
8080,45,lobster,lobster,target,upper-right,bHdRvq6u,orderB,1,hummer,8,high,m,5.333333333333333,5,mpi,04103
5951,46,cello,harp,dist1,lower-right,bHdRvq6u,orderB,0,cello,8.67,high,m,5.333333333333333,5,mpi,04103
3284,47,kayak,kayak,target,upper-left,bHdRvq6u,orderB,1,kajak,8.82,high,m,5.333333333333333,5,mpi,04103
3297,48,ruler,ruler,target,lower-left,bHdRvq6u,orderB,1,lineal,4.9,middle,m,5.333333333333333,5,mpi,04103
16502,49,jaguar,panther,dist1,lower-left,bHdRvq6u,orderB,0,jaguar,7.64,high,m,5.333333333333333,5,mpi,04103
4789,50,flounder,flounder,target,lower-right,bHdRvq6u,orderB,1,flunder,6.95,high,m,5.333333333333333,5,mpi,04103
13758,51,satellite,cell,dist3,lower-left,bHdRvq6u,orderB,0,satellit,8.94,high,m,5.333333333333333,5,mpi,04103
3692,52,zucchini,zucchini,target,upper-right,bHdRvq6u,orderB,1,zucchini,5.95,middle,m,5.333333333333333,5,mpi,04103
4845,1,door,door,target,lower-left,bVinhgvQ,orderB,1,tür,3.12,low,m,4.024640657084189,4,mpi,04103
5767,2,stairs,stairs,target,lower-right,bVinhgvQ,orderB,1,treppe,3.25,low,m,4.024640657084189,4,mpi,04103
7747,3,eye,eye,target,upper-left,bVinhgvQ,orderB,1,auge,2.69,low,m,4.024640657084189,4,mpi,04103
15060,4,desk,desk,target,lower-left,bVinhgvQ,orderB,1,schreibtisch,3.2,low,m,4.024640657084189,4,mpi,04103
9964,5,star,star,target,upper-left,bVinhgvQ,orderB,1,stern,3.29,low,m,4.024640657084189,4,mpi,04103
4195,6,squirrel,squirrel,target,lower-left,bVinhgvQ,orderB,1,eichhörnchen,2.6,low,m,4.024640657084189,4,mpi,04103
3752,7,cap,cap,target,upper-right,bVinhgvQ,orderB,1,mütze,1.95,low,m,4.024640657084189,4,mpi,04103
6700,8,telephone,telephone,target,upper-right,bVinhgvQ,orderB,1,telefon,3.53,middle,m,4.024640657084189,4,mpi,04103
4211,9,strawberry,strawberry,target,upper-left,bVinhgvQ,orderB,1,erdbeere,3.47,low,m,4.024640657084189,4,mpi,04103
3779,10,scissors,scissors,target,upper-right,bVinhgvQ,orderB,1,schere,3.38,low,m,4.024640657084189,4,mpi,04103
3273,11,bone,bone,target,lower-right,bVinhgvQ,orderB,1,knochen,4.64,middle,m,4.024640657084189,4,mpi,04103
3541,12,paintbrush,paintbrush,target,lower-left,bVinhgvQ,orderB,1,pinsel,3.43,low,m,4.024640657084189,4,mpi,04103
5791,13,fryingpan,fryingpan,target,upper-left,bVinhgvQ,orderB,1,pfanne,4.16,middle,m,4.024640657084189,4,mpi,04103
3330,14,carrot,carrot,target,lower-right,bVinhgvQ,orderB,1,möhre,3.36,low,m,4.024640657084189,4,mpi,04103
4306,15,plane,plane,target,lower-left,bVinhgvQ,orderB,1,hobel,7.53,high,m,4.024640657084189,4,mpi,04103
7847,16,tiger,tiger,target,upper-right,bVinhgvQ,orderB,1,tiger,3.88,middle,m,4.024640657084189,4,mpi,04103
8270,17,snake,snake,target,upper-left,bVinhgvQ,orderB,1,schlange,2,low,m,4.024640657084189,4,mpi,04103
4702,18,apple,apple,target,upper-left,bVinhgvQ,orderB,1,apfel,2.71,low,m,4.024640657084189,4,mpi,04103
4454,19,battery,battery,target,lower-right,bVinhgvQ,orderB,1,batterie,5.94,middle,m,4.024640657084189,4,mpi,04103
7182,20,flag,flag,target,lower-right,bVinhgvQ,orderB,1,flagge,5.86,middle,m,4.024640657084189,4,mpi,04103
11085,21,ladder,ladder,target,upper-right,bVinhgvQ,orderB,1,leiter,4.47,middle,m,4.024640657084189,4,mpi,04103
3652,22,fish,fish,target,lower-left,bVinhgvQ,orderB,1,fisch,2.76,low,m,4.024640657084189,4,mpi,04103
5060,23,giraffe,giraffe,target,upper-left,bVinhgvQ,orderB,1,giraffe,3.79,middle,m,4.024640657084189,4,mpi,04103
4925,24,ant,ant,target,upper-right,bVinhgvQ,orderB,1,ameise,4.6,middle,m,4.024640657084189,4,mpi,04103
4542,25,bicycle,bicycle,target,upper-right,bVinhgvQ,orderB,1,fahrrad,3.8,middle,m,4.024640657084189,4,mpi,04103
19905,26,ruin,goalkeeper,dist3,upper-left,bVinhgvQ,orderB,0,ruine,6.21,high,m,4.024640657084189,4,mpi,04103
7982,27,choir,pipe,dist2,upper-left,bVinhgvQ,orderB,0,chor,7.19,high,m,4.024640657084189,4,mpi,04103
3604,28,pineapple,pineapple,target,lower-right,bVinhgvQ,orderB,1,ananas,4.1,middle,m,4.024640657084189,4,mpi,04103
6605,29,zebra,zebra,target,upper-right,bVinhgvQ,orderB,1,zebra,3.65,middle,m,4.024640657084189,4,mpi,04103
3596,30,belt,belt,target,lower-right,bVinhgvQ,orderB,1,gürtel,4.11,middle,m,4.024640657084189,4,mpi,04103
3431,31,mushroom,mushroom,target,lower-right,bVinhgvQ,orderB,1,pilz,3.67,middle,m,4.024640657084189,4,mpi,04103
8642,32,elk,elk,target,upper-left,bVinhgvQ,orderB,1,elch,6.28,high,m,4.024640657084189,4,mpi,04103
3749,33,needle,needle,target,upper-left,bVinhgvQ,orderB,1,nadel,4.22,middle,m,4.024640657084189,4,mpi,04103
9009,34,arugula,arugula,target,lower-right,bVinhgvQ,orderB,1,rucola,6.18,high,m,4.024640657084189,4,mpi,04103
6815,35,palmtree,palmtree,target,lower-left,bVinhgvQ,orderB,1,palme,6.57,high,m,4.024640657084189,4,mpi,04103
6356,36,kangaroo,kangaroo,target,lower-left,bVinhgvQ,orderB,1,känguru,5.89,middle,m,4.024640657084189,4,mpi,04103
35109,37,gazelle,gazelle,target,lower-right,bVinhgvQ,orderB,1,gazelle,6.31,high,m,4.024640657084189,4,mpi,04103
16820,38,badger,raccoon,dist1,lower-right,bVinhgvQ,orderB,0,dachs,6.17,high,m,4.024640657084189,4,mpi,04103
5308,39,chanterelle,chanterelle,target,upper-left,bVinhgvQ,orderB,1,pfifferling,7.13,high,m,4.024640657084189,4,mpi,04103
10407,40,orchid,shrub,dist1,upper-left,bVinhgvQ,orderB,0,orchidee,9.76,high,m,4.024640657084189,4,mpi,04103
4222,41,carnation,carnation,target,upper-right,bVinhgvQ,orderB,1,nelke,7.82,high,m,4.024640657084189,4,mpi,04103
4360,42,ventilator,ventilator,target,upper-right,bVinhgvQ,orderB,1,ventilator,6.59,high,m,4.024640657084189,4,mpi,04103
8774,43,labyrinth,rollercoaster,dist1,upper-left,bVinhgvQ,orderB,0,labyrinth,6.63,high,m,4.024640657084189,4,mpi,04103
3427,44,ocean,ocean,target,upper-left,bVinhgvQ,orderB,1,ozean,6.46,high,m,4.024640657084189,4,mpi,04103
7662,45,lobster,lobster,target,upper-right,bVinhgvQ,orderB,1,hummer,8,high,m,4.024640657084189,4,mpi,04103
4718,46,cello,harp,dist1,lower-right,bVinhgvQ,orderB,0,cello,8.67,high,m,4.024640657084189,4,mpi,04103
4781,47,kayak,kayak,target,upper-left,bVinhgvQ,orderB,1,kajak,8.82,high,m,4.024640657084189,4,mpi,04103
5797,48,ruler,ruler,target,lower-left,bVinhgvQ,orderB,1,lineal,4.9,middle,m,4.024640657084189,4,mpi,04103
6054,49,jaguar,panther,dist1,lower-left,bVinhgvQ,orderB,0,jaguar,7.64,high,m,4.024640657084189,4,mpi,04103
7164,50,flounder,flounder,target,lower-right,bVinhgvQ,orderB,1,flunder,6.95,high,m,4.024640657084189,4,mpi,04103
6979,51,satellite,satellite,target,upper-left,bVinhgvQ,orderB,1,satellit,8.94,high,m,4.024640657084189,4,mpi,04103
7015,52,zucchini,zucchini,target,upper-right,bVinhgvQ,orderB,1,zucchini,5.95,middle,m,4.024640657084189,4,mpi,04103
5294,1,squirrel,squirrel,target,lower-left,bxDYS8Vr,orderA,1,eichhörnchen,2.6,low,m,4.068446269678303,4,mpi,04103
4344,2,cap,cap,target,upper-right,bxDYS8Vr,orderA,1,mütze,1.95,low,m,4.068446269678303,4,mpi,04103
3717,3,door,door,target,lower-left,bxDYS8Vr,orderA,1,tür,3.12,low,m,4.068446269678303,4,mpi,04103
3972,4,stairs,stairs,target,lower-right,bxDYS8Vr,orderA,1,treppe,3.25,low,m,4.068446269678303,4,mpi,04103
4289,5,desk,desk,target,lower-left,bxDYS8Vr,orderA,1,schreibtisch,3.2,low,m,4.068446269678303,4,mpi,04103
3109,6,strawberry,strawberry,target,upper-left,bxDYS8Vr,orderA,1,erdbeere,3.47,low,m,4.068446269678303,4,mpi,04103
2747,7,eye,eye,target,upper-left,bxDYS8Vr,orderA,1,auge,2.69,low,m,4.068446269678303,4,mpi,04103
3118,8,plane,plane,target,lower-left,bxDYS8Vr,orderA,1,hobel,7.53,high,m,4.068446269678303,4,mpi,04103
2891,9,paintbrush,paintbrush,target,lower-left,bxDYS8Vr,orderA,1,pinsel,3.43,low,m,4.068446269678303,4,mpi,04103
3546,10,telephone,telephone,target,upper-right,bxDYS8Vr,orderA,1,telefon,3.53,middle,m,4.068446269678303,4,mpi,04103
3551,11,snake,snake,target,upper-left,bxDYS8Vr,orderA,1,schlange,2,low,m,4.068446269678303,4,mpi,04103
4331,12,carrot,carrot,target,lower-right,bxDYS8Vr,orderA,1,möhre,3.36,low,m,4.068446269678303,4,mpi,04103
3398,13,star,star,target,upper-left,bxDYS8Vr,orderA,1,stern,3.29,low,m,4.068446269678303,4,mpi,04103
2809,14,scissors,scissors,target,upper-right,bxDYS8Vr,orderA,1,schere,3.38,low,m,4.068446269678303,4,mpi,04103
2750,15,tiger,tiger,target,upper-right,bxDYS8Vr,orderA,1,tiger,3.88,middle,m,4.068446269678303,4,mpi,04103
3114,16,bone,bone,target,lower-right,bxDYS8Vr,orderA,1,knochen,4.64,middle,m,4.068446269678303,4,mpi,04103
2863,17,apple,apple,target,upper-left,bxDYS8Vr,orderA,1,apfel,2.71,low,m,4.068446269678303,4,mpi,04103
3266,18,fish,fish,target,lower-left,bxDYS8Vr,orderA,1,fisch,2.76,low,m,4.068446269678303,4,mpi,04103
4370,19,ant,ant,target,upper-right,bxDYS8Vr,orderA,1,ameise,4.6,middle,m,4.068446269678303,4,mpi,04103
3907,20,belt,belt,target,lower-right,bxDYS8Vr,orderA,1,gürtel,4.11,middle,m,4.068446269678303,4,mpi,04103
4330,21,fryingpan,fryingpan,target,upper-left,bxDYS8Vr,orderA,1,pfanne,4.16,middle,m,4.068446269678303,4,mpi,04103
3846,22,zebra,zebra,target,upper-right,bxDYS8Vr,orderA,1,zebra,3.65,middle,m,4.068446269678303,4,mpi,04103
5262,23,needle,needle,target,upper-left,bxDYS8Vr,orderA,1,nadel,4.22,middle,m,4.068446269678303,4,mpi,04103
4191,24,bicycle,bicycle,target,upper-right,bxDYS8Vr,orderA,1,fahrrad,3.8,middle,m,4.068446269678303,4,mpi,04103
4062,25,ladder,ladder,target,upper-right,bxDYS8Vr,orderA,1,leiter,4.47,middle,m,4.068446269678303,4,mpi,04103
3763,26,battery,battery,target,lower-right,bxDYS8Vr,orderA,1,batterie,5.94,middle,m,4.068446269678303,4,mpi,04103
3920,27,elk,elk,target,upper-left,bxDYS8Vr,orderA,1,elch,6.28,high,m,4.068446269678303,4,mpi,04103
12678,28,choir,pipe,dist2,upper-left,bxDYS8Vr,orderA,0,chor,7.19,high,m,4.068446269678303,4,mpi,04103
3983,29,kangaroo,kangaroo,target,lower-left,bxDYS8Vr,orderA,1,känguru,5.89,middle,m,4.068446269678303,4,mpi,04103
3714,30,ventilator,ventilator,target,upper-right,bxDYS8Vr,orderA,1,ventilator,6.59,high,m,4.068446269678303,4,mpi,04103
5359,31,arugula,dracula,dist2,upper-left,bxDYS8Vr,orderA,0,rucola,6.18,high,m,4.068446269678303,4,mpi,04103
3745,32,flag,flag,target,lower-right,bxDYS8Vr,orderA,1,flagge,5.86,middle,m,4.068446269678303,4,mpi,04103
2975,33,giraffe,giraffe,target,upper-left,bxDYS8Vr,orderA,1,giraffe,3.79,middle,m,4.068446269678303,4,mpi,04103
3455,34,palmtree,palmtree,target,lower-left,bxDYS8Vr,orderA,1,palme,6.57,high,m,4.068446269678303,4,mpi,04103
3042,35,pineapple,pineapple,target,lower-right,bxDYS8Vr,orderA,1,ananas,4.1,middle,m,4.068446269678303,4,mpi,04103
6674,36,ocean,pelican,dist2,lower-right,bxDYS8Vr,orderA,0,ozean,6.46,high,m,4.068446269678303,4,mpi,04103
4552,37,gazelle,gazelle,target,lower-right,bxDYS8Vr,orderA,1,gazelle,6.31,high,m,4.068446269678303,4,mpi,04103
3282,38,ruler,ruler,target,lower-left,bxDYS8Vr,orderA,1,lineal,4.9,middle,m,4.068446269678303,4,mpi,04103
4152,39,badger,badger,target,lower-left,bxDYS8Vr,orderA,1,dachs,6.17,high,m,4.068446269678303,4,mpi,04103
7685,40,chanterelle,chestnut,dist1,lower-right,bxDYS8Vr,orderA,0,pfifferling,7.13,high,m,4.068446269678303,4,mpi,04103
6691,41,ruin,goalkeeper,dist3,upper-left,bxDYS8Vr,orderA,0,ruine,6.21,high,m,4.068446269678303,4,mpi,04103
4741,42,labyrinth,labyrinth,target,lower-left,bxDYS8Vr,orderA,1,labyrinth,6.63,high,m,4.068446269678303,4,mpi,04103
3393,43,mushroom,mushroom,target,lower-right,bxDYS8Vr,orderA,1,pilz,3.67,middle,m,4.068446269678303,4,mpi,04103
4297,44,orchid,shrub,dist1,upper-left,bxDYS8Vr,orderA,0,orchidee,9.76,high,m,4.068446269678303,4,mpi,04103
4369,45,zucchini,zucchini,target,upper-right,bxDYS8Vr,orderA,1,zucchini,5.95,middle,m,4.068446269678303,4,mpi,04103
6536,46,kayak,boomerang,dist3,lower-right,bxDYS8Vr,orderA,0,kajak,8.82,high,m,4.068446269678303,4,mpi,04103
4528,47,lobster,clip,dist2,lower-left,bxDYS8Vr,orderA,0,hummer,8,high,m,4.068446269678303,4,mpi,04103
5305,48,jaguar,jester,dist3,upper-left,bxDYS8Vr,orderA,0,jaguar,7.64,high,m,4.068446269678303,4,mpi,04103
4383,49,carnation,compass,dist3,upper-left,bxDYS8Vr,orderA,0,nelke,7.82,high,m,4.068446269678303,4,mpi,04103
4916,50,satellite,rocket,dist1,upper-right,bxDYS8Vr,orderA,0,satellit,8.94,high,m,4.068446269678303,4,mpi,04103
4199,51,flounder,pyramid,dist3,upper-right,bxDYS8Vr,orderA,0,flunder,6.95,high,m,4.068446269678303,4,mpi,04103
2706,52,cello,harp,dist1,lower-right,bxDYS8Vr,orderA,0,cello,8.67,high,m,4.068446269678303,4,mpi,04103
9559,1,squirrel,squirrel,target,lower-left,BxVB6MUL,orderA,1,eichhörnchen,2.6,low,f,3.693360711841205,3,mpi,04103
4837,2,cap,cap,target,upper-right,BxVB6MUL,orderA,1,mütze,1.95,low,f,3.693360711841205,3,mpi,04103
4159,3,door,door,target,lower-left,BxVB6MUL,orderA,1,tür,3.12,low,f,3.693360711841205,3,mpi,04103
3971,4,stairs,stairs,target,lower-right,BxVB6MUL,orderA,1,treppe,3.25,low,f,3.693360711841205,3,mpi,04103
5540,5,desk,desk,target,lower-left,BxVB6MUL,orderA,1,schreibtisch,3.2,low,f,3.693360711841205,3,mpi,04103
4109,6,strawberry,strawberry,target,upper-left,BxVB6MUL,orderA,1,erdbeere,3.47,low,f,3.693360711841205,3,mpi,04103
2761,7,eye,eye,target,upper-left,BxVB6MUL,orderA,1,auge,2.69,low,f,3.693360711841205,3,mpi,04103
3334,8,plane,plane,target,lower-left,BxVB6MUL,orderA,1,hobel,7.53,high,f,3.693360711841205,3,mpi,04103
2660,9,paintbrush,paintbrush,target,lower-left,BxVB6MUL,orderA,1,pinsel,3.43,low,f,3.693360711841205,3,mpi,04103
3233,10,telephone,telephone,target,upper-right,BxVB6MUL,orderA,1,telefon,3.53,middle,f,3.693360711841205,3,mpi,04103
2962,11,snake,snake,target,upper-left,BxVB6MUL,orderA,1,schlange,2,low,f,3.693360711841205,3,mpi,04103
3499,12,carrot,carrot,target,lower-right,BxVB6MUL,orderA,1,möhre,3.36,low,f,3.693360711841205,3,mpi,04103
3468,13,star,star,target,upper-left,BxVB6MUL,orderA,1,stern,3.29,low,f,3.693360711841205,3,mpi,04103
3073,14,scissors,scissors,target,upper-right,BxVB6MUL,orderA,1,schere,3.38,low,f,3.693360711841205,3,mpi,04103
2469,15,tiger,tiger,target,upper-right,BxVB6MUL,orderA,1,tiger,3.88,middle,f,3.693360711841205,3,mpi,04103
2520,16,bone,bone,target,lower-right,BxVB6MUL,orderA,1,knochen,4.64,middle,f,3.693360711841205,3,mpi,04103
1539,17,apple,apple,target,upper-left,BxVB6MUL,orderA,1,apfel,2.71,low,f,3.693360711841205,3,mpi,04103
2726,18,fish,fish,target,lower-left,BxVB6MUL,orderA,1,fisch,2.76,low,f,3.693360711841205,3,mpi,04103
4368,19,ant,ant,target,upper-right,BxVB6MUL,orderA,1,ameise,4.6,middle,f,3.693360711841205,3,mpi,04103
3145,20,belt,belt,target,lower-right,BxVB6MUL,orderA,1,gürtel,4.11,middle,f,3.693360711841205,3,mpi,04103
4585,21,fryingpan,fryingpan,target,upper-left,BxVB6MUL,orderA,1,pfanne,4.16,middle,f,3.693360711841205,3,mpi,04103
3801,22,zebra,zebra,target,upper-right,BxVB6MUL,orderA,1,zebra,3.65,middle,f,3.693360711841205,3,mpi,04103
4827,23,needle,needle,target,upper-left,BxVB6MUL,orderA,1,nadel,4.22,middle,f,3.693360711841205,3,mpi,04103
4399,24,bicycle,bicycle,target,upper-right,BxVB6MUL,orderA,1,fahrrad,3.8,middle,f,3.693360711841205,3,mpi,04103
5238,25,ladder,ladder,target,upper-right,BxVB6MUL,orderA,1,leiter,4.47,middle,f,3.693360711841205,3,mpi,04103
6294,26,battery,battery,target,lower-right,BxVB6MUL,orderA,1,batterie,5.94,middle,f,3.693360711841205,3,mpi,04103
3375,27,elk,elk,target,upper-left,BxVB6MUL,orderA,1,elch,6.28,high,f,3.693360711841205,3,mpi,04103
5149,28,choir,orchestra,dist1,lower-right,BxVB6MUL,orderA,0,chor,7.19,high,f,3.693360711841205,3,mpi,04103
2859,29,kangaroo,kangaroo,target,lower-left,BxVB6MUL,orderA,1,känguru,5.89,middle,f,3.693360711841205,3,mpi,04103
14221,30,ventilator,ventilator,target,upper-right,BxVB6MUL,orderA,1,ventilator,6.59,high,f,3.693360711841205,3,mpi,04103
10810,31,arugula,brusselsprouts,dist1,lower-left,BxVB6MUL,orderA,0,rucola,6.18,high,f,3.693360711841205,3,mpi,04103
4006,32,flag,flag,target,lower-right,BxVB6MUL,orderA,1,flagge,5.86,middle,f,3.693360711841205,3,mpi,04103
2880,33,giraffe,giraffe,target,upper-left,BxVB6MUL,orderA,1,giraffe,3.79,middle,f,3.693360711841205,3,mpi,04103
3119,34,palmtree,palmtree,target,lower-left,BxVB6MUL,orderA,1,palme,6.57,high,f,3.693360711841205,3,mpi,04103
2416,35,pineapple,pineapple,target,lower-right,BxVB6MUL,orderA,1,ananas,4.1,middle,f,3.693360711841205,3,mpi,04103
4397,36,ocean,river,dist1,lower-left,BxVB6MUL,orderA,0,ozean,6.46,high,f,3.693360711841205,3,mpi,04103
7354,37,gazelle,dragonfly,dist2,upper-left,BxVB6MUL,orderA,0,gazelle,6.31,high,f,3.693360711841205,3,mpi,04103
3839,38,ruler,ruler,target,lower-left,BxVB6MUL,orderA,1,lineal,4.9,middle,f,3.693360711841205,3,mpi,04103
2614,39,badger,badger,target,lower-left,BxVB6MUL,orderA,1,dachs,6.17,high,f,3.693360711841205,3,mpi,04103
12989,40,chanterelle,butterfly,dist2,lower-left,BxVB6MUL,orderA,0,pfifferling,7.13,high,f,3.693360711841205,3,mpi,04103
15593,41,ruin,ruin,target,lower-right,BxVB6MUL,orderA,1,ruine,6.21,high,f,3.693360711841205,3,mpi,04103
3650,42,labyrinth,labyrinth,target,lower-left,BxVB6MUL,orderA,1,labyrinth,6.63,high,f,3.693360711841205,3,mpi,04103
3755,43,mushroom,mushroom,target,lower-right,BxVB6MUL,orderA,1,pilz,3.67,middle,f,3.693360711841205,3,mpi,04103
8023,44,orchid,shrub,dist1,upper-left,BxVB6MUL,orderA,0,orchidee,9.76,high,f,3.693360711841205,3,mpi,04103
6480,45,zucchini,broccoli,dist1,lower-right,BxVB6MUL,orderA,0,zucchini,5.95,middle,f,3.693360711841205,3,mpi,04103
6773,46,kayak,kayak,target,upper-left,BxVB6MUL,orderA,1,kajak,8.82,high,f,3.693360711841205,3,mpi,04103
7235,47,lobster,lobster,target,upper-right,BxVB6MUL,orderA,1,hummer,8,high,f,3.693360711841205,3,mpi,04103
5198,48,jaguar,jaguar,target,lower-right,BxVB6MUL,orderA,1,jaguar,7.64,high,f,3.693360711841205,3,mpi,04103
4989,49,carnation,tents,dist2,lower-left,BxVB6MUL,orderA,0,nelke,7.82,high,f,3.693360711841205,3,mpi,04103
3581,50,satellite,cell,dist3,lower-left,BxVB6MUL,orderA,0,satellit,8.94,high,f,3.693360711841205,3,mpi,04103
4494,51,flounder,elderberry,dist2,upper-left,BxVB6MUL,orderA,0,flunder,6.95,high,f,3.693360711841205,3,mpi,04103
2689,52,cello,cello,target,lower-left,BxVB6MUL,orderA,1,cello,8.67,high,f,3.693360711841205,3,mpi,04103
4902,1,squirrel,squirrel,target,lower-left,CN2GY2Qn,orderA,1,eichhörnchen,2.6,low,f,4.183436002737851,4,mpi,04103
4330,2,cap,cap,target,upper-right,CN2GY2Qn,orderA,1,mütze,1.95,low,f,4.183436002737851,4,mpi,04103
4770,3,door,door,target,lower-left,CN2GY2Qn,orderA,1,tür,3.12,low,f,4.183436002737851,4,mpi,04103
4087,4,stairs,stairs,target,lower-right,CN2GY2Qn,orderA,1,treppe,3.25,low,f,4.183436002737851,4,mpi,04103
4198,5,desk,desk,target,lower-left,CN2GY2Qn,orderA,1,schreibtisch,3.2,low,f,4.183436002737851,4,mpi,04103
3055,6,strawberry,strawberry,target,upper-left,CN2GY2Qn,orderA,1,erdbeere,3.47,low,f,4.183436002737851,4,mpi,04103
3497,7,eye,eye,target,upper-left,CN2GY2Qn,orderA,1,auge,2.69,low,f,4.183436002737851,4,mpi,04103
2646,8,plane,plane,target,lower-left,CN2GY2Qn,orderA,1,hobel,7.53,high,f,4.183436002737851,4,mpi,04103
2474,9,paintbrush,paintbrush,target,lower-left,CN2GY2Qn,orderA,1,pinsel,3.43,low,f,4.183436002737851,4,mpi,04103
3137,10,telephone,telephone,target,upper-right,CN2GY2Qn,orderA,1,telefon,3.53,middle,f,4.183436002737851,4,mpi,04103
3219,11,snake,snake,target,upper-left,CN2GY2Qn,orderA,1,schlange,2,low,f,4.183436002737851,4,mpi,04103
2728,12,carrot,carrot,target,lower-right,CN2GY2Qn,orderA,1,möhre,3.36,low,f,4.183436002737851,4,mpi,04103
2963,13,star,star,target,upper-left,CN2GY2Qn,orderA,1,stern,3.29,low,f,4.183436002737851,4,mpi,04103
3492,14,scissors,scissors,target,upper-right,CN2GY2Qn,orderA,1,schere,3.38,low,f,4.183436002737851,4,mpi,04103
2492,15,tiger,tiger,target,upper-right,CN2GY2Qn,orderA,1,tiger,3.88,middle,f,4.183436002737851,4,mpi,04103
2205,16,bone,bone,target,lower-right,CN2GY2Qn,orderA,1,knochen,4.64,middle,f,4.183436002737851,4,mpi,04103
2961,17,apple,apple,target,upper-left,CN2GY2Qn,orderA,1,apfel,2.71,low,f,4.183436002737851,4,mpi,04103
2997,18,fish,fish,target,lower-left,CN2GY2Qn,orderA,1,fisch,2.76,low,f,4.183436002737851,4,mpi,04103
3535,19,ant,ant,target,upper-right,CN2GY2Qn,orderA,1,ameise,4.6,middle,f,4.183436002737851,4,mpi,04103
2731,20,belt,belt,target,lower-right,CN2GY2Qn,orderA,1,gürtel,4.11,middle,f,4.183436002737851,4,mpi,04103
4268,21,fryingpan,fryingpan,target,upper-left,CN2GY2Qn,orderA,1,pfanne,4.16,middle,f,4.183436002737851,4,mpi,04103
3816,22,zebra,zebra,target,upper-right,CN2GY2Qn,orderA,1,zebra,3.65,middle,f,4.183436002737851,4,mpi,04103
4543,23,needle,needle,target,upper-left,CN2GY2Qn,orderA,1,nadel,4.22,middle,f,4.183436002737851,4,mpi,04103
5086,24,bicycle,bicycle,target,upper-right,CN2GY2Qn,orderA,1,fahrrad,3.8,middle,f,4.183436002737851,4,mpi,04103
4552,25,ladder,ladder,target,upper-right,CN2GY2Qn,orderA,1,leiter,4.47,middle,f,4.183436002737851,4,mpi,04103
3485,26,battery,battery,target,lower-right,CN2GY2Qn,orderA,1,batterie,5.94,middle,f,4.183436002737851,4,mpi,04103
3697,27,elk,elk,target,upper-left,CN2GY2Qn,orderA,1,elch,6.28,high,f,4.183436002737851,4,mpi,04103
5674,28,choir,orchestra,dist1,lower-right,CN2GY2Qn,orderA,0,chor,7.19,high,f,4.183436002737851,4,mpi,04103
3226,29,kangaroo,kangaroo,target,lower-left,CN2GY2Qn,orderA,1,känguru,5.89,middle,f,4.183436002737851,4,mpi,04103
4969,30,ventilator,fan,dist1,lower-right,CN2GY2Qn,orderA,0,ventilator,6.59,high,f,4.183436002737851,4,mpi,04103
4652,31,arugula,arugula,target,lower-right,CN2GY2Qn,orderA,1,rucola,6.18,high,f,4.183436002737851,4,mpi,04103
3600,32,flag,flag,target,lower-right,CN2GY2Qn,orderA,1,flagge,5.86,middle,f,4.183436002737851,4,mpi,04103
3317,33,giraffe,giraffe,target,upper-left,CN2GY2Qn,orderA,1,giraffe,3.79,middle,f,4.183436002737851,4,mpi,04103
3676,34,palmtree,palmtree,target,lower-left,CN2GY2Qn,orderA,1,palme,6.57,high,f,4.183436002737851,4,mpi,04103
2096,35,pineapple,pineapple,target,lower-right,CN2GY2Qn,orderA,1,ananas,4.1,middle,f,4.183436002737851,4,mpi,04103
4966,36,ocean,ocean,target,upper-left,CN2GY2Qn,orderA,1,ozean,6.46,high,f,4.183436002737851,4,mpi,04103
15033,37,gazelle,gazelle,target,lower-right,CN2GY2Qn,orderA,1,gazelle,6.31,high,f,4.183436002737851,4,mpi,04103
4005,38,ruler,ruler,target,lower-left,CN2GY2Qn,orderA,1,lineal,4.9,middle,f,4.183436002737851,4,mpi,04103
3139,39,badger,badger,target,lower-left,CN2GY2Qn,orderA,1,dachs,6.17,high,f,4.183436002737851,4,mpi,04103
7631,40,chanterelle,diamond,dist3,upper-right,CN2GY2Qn,orderA,0,pfifferling,7.13,high,f,4.183436002737851,4,mpi,04103
7700,41,ruin,fortress,dist1,upper-right,CN2GY2Qn,orderA,0,ruine,6.21,high,f,4.183436002737851,4,mpi,04103
5184,42,labyrinth,labyrinth,target,lower-left,CN2GY2Qn,orderA,1,labyrinth,6.63,high,f,4.183436002737851,4,mpi,04103
2899,43,mushroom,mushroom,target,lower-right,CN2GY2Qn,orderA,1,pilz,3.67,middle,f,4.183436002737851,4,mpi,04103
6412,44,orchid,orchid,target,lower-left,CN2GY2Qn,orderA,1,orchidee,9.76,high,f,4.183436002737851,4,mpi,04103
4894,45,zucchini,zucchini,target,upper-right,CN2GY2Qn,orderA,1,zucchini,5.95,middle,f,4.183436002737851,4,mpi,04103
6259,46,kayak,kayak,target,upper-left,CN2GY2Qn,orderA,1,kajak,8.82,high,f,4.183436002737851,4,mpi,04103
4005,47,lobster,lobster,target,upper-right,CN2GY2Qn,orderA,1,hummer,8,high,f,4.183436002737851,4,mpi,04103
13652,48,jaguar,jaguar,target,lower-right,CN2GY2Qn,orderA,1,jaguar,7.64,high,f,4.183436002737851,4,mpi,04103
5266,49,carnation,violets,dist1,lower-right,CN2GY2Qn,orderA,0,nelke,7.82,high,f,4.183436002737851,4,mpi,04103
23184,50,satellite,cell,dist3,lower-left,CN2GY2Qn,orderA,0,satellit,8.94,high,f,4.183436002737851,4,mpi,04103
3478,51,flounder,flounder,target,lower-right,CN2GY2Qn,orderA,1,flunder,6.95,high,f,4.183436002737851,4,mpi,04103
2963,52,cello,cello,target,lower-left,CN2GY2Qn,orderA,1,cello,8.67,high,f,4.183436002737851,4,mpi,04103
8911,1,door,door,target,lower-left,CPPsK3FW,orderB,1,tür,3.12,low,f,4.525667351129363,4,mpi,04103
4991,2,stairs,stairs,target,lower-right,CPPsK3FW,orderB,1,treppe,3.25,low,f,4.525667351129363,4,mpi,04103
5173,3,eye,eye,target,upper-left,CPPsK3FW,orderB,1,auge,2.69,low,f,4.525667351129363,4,mpi,04103
5590,4,desk,desk,target,lower-left,CPPsK3FW,orderB,1,schreibtisch,3.2,low,f,4.525667351129363,4,mpi,04103
2305,5,star,star,target,upper-left,CPPsK3FW,orderB,1,stern,3.29,low,f,4.525667351129363,4,mpi,04103
1814,6,squirrel,squirrel,target,lower-left,CPPsK3FW,orderB,1,eichhörnchen,2.6,low,f,4.525667351129363,4,mpi,04103
1883,7,cap,cap,target,upper-right,CPPsK3FW,orderB,1,mütze,1.95,low,f,4.525667351129363,4,mpi,04103
2659,8,telephone,telephone,target,upper-right,CPPsK3FW,orderB,1,telefon,3.53,middle,f,4.525667351129363,4,mpi,04103
2353,9,strawberry,strawberry,target,upper-left,CPPsK3FW,orderB,1,erdbeere,3.47,low,f,4.525667351129363,4,mpi,04103
2811,10,scissors,scissors,target,upper-right,CPPsK3FW,orderB,1,schere,3.38,low,f,4.525667351129363,4,mpi,04103
3568,11,bone,bone,target,lower-right,CPPsK3FW,orderB,1,knochen,4.64,middle,f,4.525667351129363,4,mpi,04103
3767,12,paintbrush,paintbrush,target,lower-left,CPPsK3FW,orderB,1,pinsel,3.43,low,f,4.525667351129363,4,mpi,04103
2042,13,fryingpan,fryingpan,target,upper-left,CPPsK3FW,orderB,1,pfanne,4.16,middle,f,4.525667351129363,4,mpi,04103
4213,14,carrot,carrot,target,lower-right,CPPsK3FW,orderB,1,möhre,3.36,low,f,4.525667351129363,4,mpi,04103
5880,15,plane,plane,target,lower-left,CPPsK3FW,orderB,1,hobel,7.53,high,f,4.525667351129363,4,mpi,04103
1615,16,tiger,tiger,target,upper-right,CPPsK3FW,orderB,1,tiger,3.88,middle,f,4.525667351129363,4,mpi,04103
12510,17,snake,snake,target,upper-left,CPPsK3FW,orderB,1,schlange,2,low,f,4.525667351129363,4,mpi,04103
2330,18,apple,apple,target,upper-left,CPPsK3FW,orderB,1,apfel,2.71,low,f,4.525667351129363,4,mpi,04103
7839,19,battery,battery,target,lower-right,CPPsK3FW,orderB,1,batterie,5.94,middle,f,4.525667351129363,4,mpi,04103
13275,20,flag,flag,target,lower-right,CPPsK3FW,orderB,1,flagge,5.86,middle,f,4.525667351129363,4,mpi,04103
3693,21,ladder,ladder,target,upper-right,CPPsK3FW,orderB,1,leiter,4.47,middle,f,4.525667351129363,4,mpi,04103
2419,22,fish,fish,target,lower-left,CPPsK3FW,orderB,1,fisch,2.76,low,f,4.525667351129363,4,mpi,04103
6475,23,giraffe,giraffe,target,upper-left,CPPsK3FW,orderB,1,giraffe,3.79,middle,f,4.525667351129363,4,mpi,04103
2910,24,ant,ant,target,upper-right,CPPsK3FW,orderB,1,ameise,4.6,middle,f,4.525667351129363,4,mpi,04103
3024,25,bicycle,bicycle,target,upper-right,CPPsK3FW,orderB,1,fahrrad,3.8,middle,f,4.525667351129363,4,mpi,04103
17205,26,ruin,ruin,target,lower-right,CPPsK3FW,orderB,1,ruine,6.21,high,f,4.525667351129363,4,mpi,04103
14995,27,choir,choir,target,upper-right,CPPsK3FW,orderB,1,chor,7.19,high,f,4.525667351129363,4,mpi,04103
2846,28,pineapple,pineapple,target,lower-right,CPPsK3FW,orderB,1,ananas,4.1,middle,f,4.525667351129363,4,mpi,04103
2413,29,zebra,television,dist2,lower-left,CPPsK3FW,orderB,0,zebra,3.65,middle,f,4.525667351129363,4,mpi,04103
5366,30,belt,belt,target,lower-right,CPPsK3FW,orderB,1,gürtel,4.11,middle,f,4.525667351129363,4,mpi,04103
1907,31,mushroom,broom,dist2,upper-left,CPPsK3FW,orderB,0,pilz,3.67,middle,f,4.525667351129363,4,mpi,04103
3600,32,elk,elk,target,upper-left,CPPsK3FW,orderB,1,elch,6.28,high,f,4.525667351129363,4,mpi,04103
16155,33,needle,needle,target,upper-left,CPPsK3FW,orderB,1,nadel,4.22,middle,f,4.525667351129363,4,mpi,04103
13411,34,arugula,brusselsprouts,dist1,lower-left,CPPsK3FW,orderB,0,rucola,6.18,high,f,4.525667351129363,4,mpi,04103
2458,35,palmtree,palmtree,target,lower-left,CPPsK3FW,orderB,1,palme,6.57,high,f,4.525667351129363,4,mpi,04103
1978,36,kangaroo,kangaroo,target,lower-left,CPPsK3FW,orderB,1,känguru,5.89,middle,f,4.525667351129363,4,mpi,04103
10313,37,gazelle,dragonfly,dist2,upper-left,CPPsK3FW,orderB,0,gazelle,6.31,high,f,4.525667351129363,4,mpi,04103
4255,38,badger,raccoon,dist1,lower-right,CPPsK3FW,orderB,0,dachs,6.17,high,f,4.525667351129363,4,mpi,04103
7830,39,chanterelle,diamond,dist3,upper-right,CPPsK3FW,orderB,0,pfifferling,7.13,high,f,4.525667351129363,4,mpi,04103
16289,40,orchid,orchid,target,lower-left,CPPsK3FW,orderB,1,orchidee,9.76,high,f,4.525667351129363,4,mpi,04103
4409,41,carnation,violets,dist1,lower-right,CPPsK3FW,orderB,0,nelke,7.82,high,f,4.525667351129363,4,mpi,04103
3808,42,ventilator,ventilator,target,upper-right,CPPsK3FW,orderB,1,ventilator,6.59,high,f,4.525667351129363,4,mpi,04103
3694,43,labyrinth,labyrinth,target,lower-left,CPPsK3FW,orderB,1,labyrinth,6.63,high,f,4.525667351129363,4,mpi,04103
3118,44,ocean,river,dist1,lower-left,CPPsK3FW,orderB,0,ozean,6.46,high,f,4.525667351129363,4,mpi,04103
8322,45,lobster,lobster,target,upper-right,CPPsK3FW,orderB,1,hummer,8,high,f,4.525667351129363,4,mpi,04103
11501,46,cello,cello,target,lower-left,CPPsK3FW,orderB,1,cello,8.67,high,f,4.525667351129363,4,mpi,04103
11821,47,kayak,boomerang,dist3,lower-right,CPPsK3FW,orderB,0,kajak,8.82,high,f,4.525667351129363,4,mpi,04103
7196,48,ruler,ruler,target,lower-left,CPPsK3FW,orderB,1,lineal,4.9,middle,f,4.525667351129363,4,mpi,04103
12259,49,jaguar,panther,dist1,lower-left,CPPsK3FW,orderB,0,jaguar,7.64,high,f,4.525667351129363,4,mpi,04103
8826,50,flounder,elderberry,dist2,upper-left,CPPsK3FW,orderB,0,flunder,6.95,high,f,4.525667351129363,4,mpi,04103
10525,51,satellite,satellite,target,upper-left,CPPsK3FW,orderB,1,satellit,8.94,high,f,4.525667351129363,4,mpi,04103
3152,52,zucchini,zucchini,target,upper-right,CPPsK3FW,orderB,1,zucchini,5.95,middle,f,4.525667351129363,4,mpi,04103
4844,1,door,door,target,lower-left,cWGhsgp2,orderB,1,tür,3.12,low,f,5.489390828199863,5,mpi,04103
3824,2,stairs,stairs,target,lower-right,cWGhsgp2,orderB,1,treppe,3.25,low,f,5.489390828199863,5,mpi,04103
4149,3,eye,eye,target,upper-left,cWGhsgp2,orderB,1,auge,2.69,low,f,5.489390828199863,5,mpi,04103
3847,4,desk,desk,target,lower-left,cWGhsgp2,orderB,1,schreibtisch,3.2,low,f,5.489390828199863,5,mpi,04103
5042,5,star,star,target,upper-left,cWGhsgp2,orderB,1,stern,3.29,low,f,5.489390828199863,5,mpi,04103
2129,6,squirrel,squirrel,target,lower-left,cWGhsgp2,orderB,1,eichhörnchen,2.6,low,f,5.489390828199863,5,mpi,04103
1915,7,cap,cap,target,upper-right,cWGhsgp2,orderB,1,mütze,1.95,low,f,5.489390828199863,5,mpi,04103
1837,8,telephone,telephone,target,upper-right,cWGhsgp2,orderB,1,telefon,3.53,middle,f,5.489390828199863,5,mpi,04103
6088,9,strawberry,strawberry,target,upper-left,cWGhsgp2,orderB,1,erdbeere,3.47,low,f,5.489390828199863,5,mpi,04103
2632,10,scissors,scissors,target,upper-right,cWGhsgp2,orderB,1,schere,3.38,low,f,5.489390828199863,5,mpi,04103
2312,11,bone,bone,target,lower-right,cWGhsgp2,orderB,1,knochen,4.64,middle,f,5.489390828199863,5,mpi,04103
2206,12,paintbrush,paintbrush,target,lower-left,cWGhsgp2,orderB,1,pinsel,3.43,low,f,5.489390828199863,5,mpi,04103
6302,13,fryingpan,fryingpan,target,upper-left,cWGhsgp2,orderB,1,pfanne,4.16,middle,f,5.489390828199863,5,mpi,04103
3298,14,carrot,carrot,target,lower-right,cWGhsgp2,orderB,1,möhre,3.36,low,f,5.489390828199863,5,mpi,04103
2694,15,plane,plane,target,lower-left,cWGhsgp2,orderB,1,hobel,7.53,high,f,5.489390828199863,5,mpi,04103
16743,16,tiger,tiger,target,upper-right,cWGhsgp2,orderB,1,tiger,3.88,middle,f,5.489390828199863,5,mpi,04103
3277,17,snake,snake,target,upper-left,cWGhsgp2,orderB,1,schlange,2,low,f,5.489390828199863,5,mpi,04103
1833,18,apple,apple,target,upper-left,cWGhsgp2,orderB,1,apfel,2.71,low,f,5.489390828199863,5,mpi,04103
2791,19,battery,battery,target,lower-right,cWGhsgp2,orderB,1,batterie,5.94,middle,f,5.489390828199863,5,mpi,04103
2261,20,flag,flag,target,lower-right,cWGhsgp2,orderB,1,flagge,5.86,middle,f,5.489390828199863,5,mpi,04103
5840,21,ladder,ladder,target,upper-right,cWGhsgp2,orderB,1,leiter,4.47,middle,f,5.489390828199863,5,mpi,04103
2964,22,fish,fish,target,lower-left,cWGhsgp2,orderB,1,fisch,2.76,low,f,5.489390828199863,5,mpi,04103
2669,23,giraffe,giraffe,target,upper-left,cWGhsgp2,orderB,1,giraffe,3.79,middle,f,5.489390828199863,5,mpi,04103
2421,24,ant,ant,target,upper-right,cWGhsgp2,orderB,1,ameise,4.6,middle,f,5.489390828199863,5,mpi,04103
3101,25,bicycle,bicycle,target,upper-right,cWGhsgp2,orderB,1,fahrrad,3.8,middle,f,5.489390828199863,5,mpi,04103
4972,26,ruin,ruin,target,lower-right,cWGhsgp2,orderB,1,ruine,6.21,high,f,5.489390828199863,5,mpi,04103
7009,27,choir,orchestra,dist1,lower-right,cWGhsgp2,orderB,0,chor,7.19,high,f,5.489390828199863,5,mpi,04103
2374,28,pineapple,pineapple,target,lower-right,cWGhsgp2,orderB,1,ananas,4.1,middle,f,5.489390828199863,5,mpi,04103
2073,29,zebra,zebra,target,upper-right,cWGhsgp2,orderB,1,zebra,3.65,middle,f,5.489390828199863,5,mpi,04103
1943,30,belt,belt,target,lower-right,cWGhsgp2,orderB,1,gürtel,4.11,middle,f,5.489390828199863,5,mpi,04103
2279,31,mushroom,mushroom,target,lower-right,cWGhsgp2,orderB,1,pilz,3.67,middle,f,5.489390828199863,5,mpi,04103
2308,32,elk,elk,target,upper-left,cWGhsgp2,orderB,1,elch,6.28,high,f,5.489390828199863,5,mpi,04103
3060,33,needle,needle,target,upper-left,cWGhsgp2,orderB,1,nadel,4.22,middle,f,5.489390828199863,5,mpi,04103
16719,34,arugula,arugula,target,lower-right,cWGhsgp2,orderB,1,rucola,6.18,high,f,5.489390828199863,5,mpi,04103
5187,35,palmtree,palmtree,target,lower-left,cWGhsgp2,orderB,1,palme,6.57,high,f,5.489390828199863,5,mpi,04103
5256,36,kangaroo,kangaroo,target,lower-left,cWGhsgp2,orderB,1,känguru,5.89,middle,f,5.489390828199863,5,mpi,04103
3427,37,gazelle,gazelle,target,lower-right,cWGhsgp2,orderB,1,gazelle,6.31,high,f,5.489390828199863,5,mpi,04103
6190,38,badger,badger,target,lower-left,cWGhsgp2,orderB,1,dachs,6.17,high,f,5.489390828199863,5,mpi,04103
8209,39,chanterelle,chanterelle,target,upper-left,cWGhsgp2,orderB,1,pfifferling,7.13,high,f,5.489390828199863,5,mpi,04103
5510,40,orchid,orchid,target,lower-left,cWGhsgp2,orderB,1,orchidee,9.76,high,f,5.489390828199863,5,mpi,04103
4650,41,carnation,carnation,target,upper-right,cWGhsgp2,orderB,1,nelke,7.82,high,f,5.489390828199863,5,mpi,04103
3389,42,ventilator,ventilator,target,upper-right,cWGhsgp2,orderB,1,ventilator,6.59,high,f,5.489390828199863,5,mpi,04103
3738,43,labyrinth,labyrinth,target,lower-left,cWGhsgp2,orderB,1,labyrinth,6.63,high,f,5.489390828199863,5,mpi,04103
2796,44,ocean,ocean,target,upper-left,cWGhsgp2,orderB,1,ozean,6.46,high,f,5.489390828199863,5,mpi,04103
5340,45,lobster,lobster,target,upper-right,cWGhsgp2,orderB,1,hummer,8,high,f,5.489390828199863,5,mpi,04103
6086,46,cello,cello,target,lower-left,cWGhsgp2,orderB,1,cello,8.67,high,f,5.489390828199863,5,mpi,04103
6234,47,kayak,kayak,target,upper-left,cWGhsgp2,orderB,1,kajak,8.82,high,f,5.489390828199863,5,mpi,04103
10149,48,ruler,ruler,target,lower-left,cWGhsgp2,orderB,1,lineal,4.9,middle,f,5.489390828199863,5,mpi,04103
3433,49,jaguar,panther,dist1,lower-left,cWGhsgp2,orderB,0,jaguar,7.64,high,f,5.489390828199863,5,mpi,04103
2176,50,flounder,orca,dist1,lower-left,cWGhsgp2,orderB,0,flunder,6.95,high,f,5.489390828199863,5,mpi,04103
5139,51,satellite,meteorid,dist2,lower-right,cWGhsgp2,orderB,0,satellit,8.94,high,f,5.489390828199863,5,mpi,04103
4962,52,zucchini,zucchini,target,upper-right,cWGhsgp2,orderB,1,zucchini,5.95,middle,f,5.489390828199863,5,mpi,04103
6390,1,door,door,target,lower-left,DCFoah7b,orderB,1,tür,3.12,low,m,5.555099247091033,5,mpi,04103
4265,2,stairs,stairs,target,lower-right,DCFoah7b,orderB,1,treppe,3.25,low,m,5.555099247091033,5,mpi,04103
4072,3,eye,eye,target,upper-left,DCFoah7b,orderB,1,auge,2.69,low,m,5.555099247091033,5,mpi,04103
3870,4,desk,desk,target,lower-left,DCFoah7b,orderB,1,schreibtisch,3.2,low,m,5.555099247091033,5,mpi,04103
3130,5,star,star,target,upper-left,DCFoah7b,orderB,1,stern,3.29,low,m,5.555099247091033,5,mpi,04103
2641,6,squirrel,squirrel,target,lower-left,DCFoah7b,orderB,1,eichhörnchen,2.6,low,m,5.555099247091033,5,mpi,04103
2609,7,cap,cap,target,upper-right,DCFoah7b,orderB,1,mütze,1.95,low,m,5.555099247091033,5,mpi,04103
2173,8,telephone,telephone,target,upper-right,DCFoah7b,orderB,1,telefon,3.53,middle,m,5.555099247091033,5,mpi,04103
2535,9,strawberry,strawberry,target,upper-left,DCFoah7b,orderB,1,erdbeere,3.47,low,m,5.555099247091033,5,mpi,04103
2256,10,scissors,scissors,target,upper-right,DCFoah7b,orderB,1,schere,3.38,low,m,5.555099247091033,5,mpi,04103
2737,11,bone,bone,target,lower-right,DCFoah7b,orderB,1,knochen,4.64,middle,m,5.555099247091033,5,mpi,04103
2312,12,paintbrush,paintbrush,target,lower-left,DCFoah7b,orderB,1,pinsel,3.43,low,m,5.555099247091033,5,mpi,04103
2271,13,fryingpan,fryingpan,target,upper-left,DCFoah7b,orderB,1,pfanne,4.16,middle,m,5.555099247091033,5,mpi,04103
2808,14,carrot,carrot,target,lower-right,DCFoah7b,orderB,1,möhre,3.36,low,m,5.555099247091033,5,mpi,04103
2154,15,plane,plane,target,lower-left,DCFoah7b,orderB,1,hobel,7.53,high,m,5.555099247091033,5,mpi,04103
2192,16,tiger,tiger,target,upper-right,DCFoah7b,orderB,1,tiger,3.88,middle,m,5.555099247091033,5,mpi,04103
2455,17,snake,snake,target,upper-left,DCFoah7b,orderB,1,schlange,2,low,m,5.555099247091033,5,mpi,04103
3392,18,apple,apple,target,upper-left,DCFoah7b,orderB,1,apfel,2.71,low,m,5.555099247091033,5,mpi,04103
2708,19,battery,battery,target,lower-right,DCFoah7b,orderB,1,batterie,5.94,middle,m,5.555099247091033,5,mpi,04103
3036,20,flag,flag,target,lower-right,DCFoah7b,orderB,1,flagge,5.86,middle,m,5.555099247091033,5,mpi,04103
6821,21,ladder,ladder,target,upper-right,DCFoah7b,orderB,1,leiter,4.47,middle,m,5.555099247091033,5,mpi,04103
4064,22,fish,fish,target,lower-left,DCFoah7b,orderB,1,fisch,2.76,low,m,5.555099247091033,5,mpi,04103
3807,23,giraffe,giraffe,target,upper-left,DCFoah7b,orderB,1,giraffe,3.79,middle,m,5.555099247091033,5,mpi,04103
3310,24,ant,ant,target,upper-right,DCFoah7b,orderB,1,ameise,4.6,middle,m,5.555099247091033,5,mpi,04103
4064,25,bicycle,bicycle,target,upper-right,DCFoah7b,orderB,1,fahrrad,3.8,middle,m,5.555099247091033,5,mpi,04103
8757,26,ruin,ruin,target,lower-right,DCFoah7b,orderB,1,ruine,6.21,high,m,5.555099247091033,5,mpi,04103
6349,27,choir,orchestra,dist1,lower-right,DCFoah7b,orderB,0,chor,7.19,high,m,5.555099247091033,5,mpi,04103
2668,28,pineapple,pineapple,target,lower-right,DCFoah7b,orderB,1,ananas,4.1,middle,m,5.555099247091033,5,mpi,04103
3281,29,zebra,zebra,target,upper-right,DCFoah7b,orderB,1,zebra,3.65,middle,m,5.555099247091033,5,mpi,04103
2286,30,belt,belt,target,lower-right,DCFoah7b,orderB,1,gürtel,4.11,middle,m,5.555099247091033,5,mpi,04103
3008,31,mushroom,mushroom,target,lower-right,DCFoah7b,orderB,1,pilz,3.67,middle,m,5.555099247091033,5,mpi,04103
3611,32,elk,elk,target,upper-left,DCFoah7b,orderB,1,elch,6.28,high,m,5.555099247091033,5,mpi,04103
2537,33,needle,needle,target,upper-left,DCFoah7b,orderB,1,nadel,4.22,middle,m,5.555099247091033,5,mpi,04103
9611,34,arugula,poster,dist3,upper-right,DCFoah7b,orderB,0,rucola,6.18,high,m,5.555099247091033,5,mpi,04103
